typedAnswer,multiplyRT,multiplyCorr,problem,OperandType,productType,participant,group,mean_blocks,max_digitspan,digitspan_type,median_RT,num_correct_trials,interference_score
20,2.28186,1,4 x 5 =,smallFirst,smallProd,1000,ABC,8.666666666666666,7,WAIS,1.41564,25,8
24,1.88194,1,3 x 8 =,smallFirst,smallProd,1000,ABC,8.666666666666666,7,WAIS,1.41564,25,13
72,4.463605,1,8 x 9 =,smallFirst,largeProd,1000,ABC,8.666666666666666,7,WAIS,1.41564,25,19
42,5.446575,0,6 x 8 =,smallFirst,largeProd,1000,ABC,8.666666666666666,7,WAIS,1.41564,25,11
30,1.74875,1,6 x 5 =,largeFirst,largeProd,1000,ABC,8.666666666666666,7,WAIS,1.41564,25,6
40,2.33183,1,5 x 8 =,smallFirst,largeProd,1000,ABC,8.666666666666666,7,WAIS,1.41564,25,9
42,2.098575,1,7 x 6 =,largeFirst,largeProd,1000,ABC,8.666666666666666,7,WAIS,1.41564,25,22
8,2.015125,1,2 x 4 =,smallFirst,smallProd,1000,ABC,8.666666666666666,7,WAIS,1.41564,25,1
45,1.86548,1,9 x 5 =,largeFirst,largeProd,1000,ABC,8.666666666666666,7,WAIS,1.41564,25,6
36,3.14813,1,4 x 9 =,smallFirst,largeProd,1000,ABC,8.666666666666666,7,WAIS,1.41564,25,9
54,8.61199,1,6 x 9 =,smallFirst,largeProd,1000,ABC,8.666666666666666,7,WAIS,1.41564,25,13
9,1.448605,1,3 x 3 =,tie,smallProd,1000,ABC,8.666666666666666,7,WAIS,1.41564,25,0
18,1.68177,1,2 x 9 =,smallFirst,smallProd,1000,ABC,8.666666666666666,7,WAIS,1.41564,25,7
27,1.81532,0,3 x 7 =,smallFirst,smallProd,1000,ABC,8.666666666666666,7,WAIS,1.41564,25,13
49,2.14846,1,7 x 7 =,tie,largeProd,1000,ABC,8.666666666666666,7,WAIS,1.41564,25,7
12,2.998235,1,2 x 6 =,smallFirst,smallProd,1000,ABC,8.666666666666666,7,WAIS,1.41564,25,3
32,2.398155,0,4 x 7 =,smallFirst,largeProd,1000,ABC,8.666666666666666,7,WAIS,1.41564,25,17
18,3.29794,1,6 x 3 =,largeFirst,smallProd,1000,ABC,8.666666666666666,7,WAIS,1.41564,25,8
27,1.98205,1,9 x 3 =,largeFirst,largeProd,1000,ABC,8.666666666666666,7,WAIS,1.41564,25,9
15,1.64851,1,3 x 5 =,smallFirst,smallProd,1000,ABC,8.666666666666666,7,WAIS,1.41564,25,2
14,1.49864,1,7 x 2 =,largeFirst,smallProd,1000,ABC,8.666666666666666,7,WAIS,1.41564,25,4
10,1.599215,1,5 x 2 =,largeFirst,smallProd,1000,ABC,8.666666666666666,7,WAIS,1.41564,25,0
52,9.594465,0,7 x 8 =,smallFirst,largeProd,1000,ABC,8.666666666666666,7,WAIS,1.41564,25,9
24,2.315455,1,6 x 4 =,largeFirst,smallProd,1000,ABC,8.666666666666666,7,WAIS,1.41564,25,12
32,4.73014,1,8 x 4 =,largeFirst,largeProd,1000,ABC,8.666666666666666,7,WAIS,1.41564,25,25
63,4.18042,1,9 x 7 =,largeFirst,largeProd,1000,ABC,8.666666666666666,7,WAIS,1.41564,25,17
6,2.148025,1,3 x 2 =,largeFirst,smallProd,1000,ABC,8.666666666666666,7,WAIS,1.41564,25,0
35,2.723265,1,7 x 5 =,largeFirst,largeProd,1000,ABC,8.666666666666666,7,WAIS,1.41564,25,7
12,4.214155,1,4 x 3 =,largeFirst,smallProd,1000,ABC,8.666666666666666,7,WAIS,1.41564,25,10
16,1.540185,1,8 x 2 =,largeFirst,smallProd,1000,ABC,8.666666666666666,7,WAIS,1.41564,25,7
45,2.69814,1,5 x 9 =,smallFirst,largeProd,1000,ABC,8.666666666666666,7,WAIS,1.41564,25,6
28,3.581345,1,7 x 4 =,largeFirst,largeProd,1000,ABC,8.666666666666666,7,WAIS,1.41564,25,17
24,1.982225,1,4 x 6 =,smallFirst,smallProd,1000,ABC,8.666666666666666,7,WAIS,1.41564,25,12
21,6.67969,1,7 x 3 =,largeFirst,smallProd,1000,ABC,8.666666666666666,7,WAIS,1.41564,25,13
27,4.322365,1,3 x 9 =,smallFirst,largeProd,1000,ABC,8.666666666666666,7,WAIS,1.41564,25,9
20,2.41541,1,5 x 4 =,largeFirst,smallProd,1000,ABC,8.666666666666666,7,WAIS,1.41564,25,8
54,6.83722,0,8 x 7 =,largeFirst,largeProd,1000,ABC,8.666666666666666,7,WAIS,1.41564,25,9
35,4.147455,1,5 x 7 =,smallFirst,largeProd,1000,ABC,8.666666666666666,7,WAIS,1.41564,25,7
12,2.148685,1,3 x 4 =,smallFirst,smallProd,1000,ABC,8.666666666666666,7,WAIS,1.41564,25,10
36,4.430495,1,9 x 4 =,largeFirst,largeProd,1000,ABC,8.666666666666666,7,WAIS,1.41564,25,9
12,1.332365,1,6 x 2 =,largeFirst,smallProd,1000,ABC,8.666666666666666,7,WAIS,1.41564,25,3
18,2.248735,1,9 x 2 =,largeFirst,smallProd,1000,ABC,8.666666666666666,7,WAIS,1.41564,25,7
6,1.598935,1,2 x 3 =,smallFirst,smallProd,1000,ABC,8.666666666666666,7,WAIS,1.41564,25,0
8,1.398865,1,4 x 2 =,largeFirst,smallProd,1000,ABC,8.666666666666666,7,WAIS,1.41564,25,1
10,1.699155,1,2 x 5 =,smallFirst,smallProd,1000,ABC,8.666666666666666,7,WAIS,1.41564,25,0
24,5.6962,1,8 x 3 =,largeFirst,smallProd,1000,ABC,8.666666666666666,7,WAIS,1.41564,25,13
30,2.06509,1,5 x 6 =,smallFirst,largeProd,1000,ABC,8.666666666666666,7,WAIS,1.41564,25,6
36,3.581265,0,4 x 8 =,smallFirst,largeProd,1000,ABC,8.666666666666666,7,WAIS,1.41564,25,25
14,3.21514,1,2 x 7 =,smallFirst,smallProd,1000,ABC,8.666666666666666,7,WAIS,1.41564,25,4
18,2.215385,1,3 x 6 =,smallFirst,smallProd,1000,ABC,8.666666666666666,7,WAIS,1.41564,25,8
16,1.982105,1,2 x 8 =,smallFirst,smallProd,1000,ABC,8.666666666666666,7,WAIS,1.41564,25,7
40,2.23224,1,8 x 5 =,largeFirst,largeProd,1000,ABC,8.666666666666666,7,WAIS,1.41564,25,9
64,2.16553,1,8 x 8 =,tie,largeProd,1000,ABC,8.666666666666666,7,WAIS,1.41564,25,19
72,10.360665,1,9 x 8 =,largeFirst,largeProd,1000,ABC,8.666666666666666,7,WAIS,1.41564,25,19
48,3.231765,1,8 x 6 =,largeFirst,largeProd,1000,ABC,8.666666666666666,7,WAIS,1.41564,25,11
42,2.04865,1,6 x 7 =,smallFirst,largeProd,1000,ABC,8.666666666666666,7,WAIS,1.41564,25,22
54,3.914005,1,9 x 6 =,largeFirst,largeProd,1000,ABC,8.666666666666666,7,WAIS,1.41564,25,13
15,1.598465,1,5 x 3 =,largeFirst,smallProd,1000,ABC,8.666666666666666,7,WAIS,1.41564,25,2
63,7.1461,1,7 x 9 =,smallFirst,largeProd,1000,ABC,8.666666666666666,7,WAIS,1.41564,25,17
16,1.681825,1,4 x 4 =,tie,smallProd,1000,ABC,8.666666666666666,7,WAIS,1.41564,25,5
64,1.8153,1,8 x 8 =,tie,largeProd,651,ACB,10.333333333333334,6,WAIS,1.19185,27,19
18,1.8663,1,3 x 6 =,smallFirst,smallProd,651,ACB,10.333333333333334,6,WAIS,1.19185,27,8
12,3.5985,1,3 x 4 =,smallFirst,smallProd,651,ACB,10.333333333333334,6,WAIS,1.19185,27,10
6,1.5158,1,2 x 3 =,smallFirst,smallProd,651,ACB,10.333333333333334,6,WAIS,1.19185,27,0
24,1.4323,1,4 x 6 =,smallFirst,smallProd,651,ACB,10.333333333333334,6,WAIS,1.19185,27,12
30,1.6329,1,5 x 6 =,smallFirst,largeProd,651,ACB,10.333333333333334,6,WAIS,1.19185,27,6
432,2.6325,0,6 x 7 =,smallFirst,largeProd,651,ACB,10.333333333333334,6,WAIS,1.19185,27,22
12,1.0501,1,6 x 2 =,largeFirst,smallProd,651,ACB,10.333333333333334,6,WAIS,1.19185,27,3
54,1.9996,1,9 x 6 =,largeFirst,largeProd,651,ACB,10.333333333333334,6,WAIS,1.19185,27,13
72,1.7494,1,9 x 8 =,largeFirst,largeProd,651,ACB,10.333333333333334,6,WAIS,1.19185,27,19
45,3.1829,1,5 x 9 =,smallFirst,largeProd,651,ACB,10.333333333333334,6,WAIS,1.19185,27,6
8,1.2492,1,4 x 2 =,largeFirst,smallProd,651,ACB,10.333333333333334,6,WAIS,1.19185,27,1
48,1.683,1,8 x 6 =,largeFirst,largeProd,651,ACB,10.333333333333334,6,WAIS,1.19185,27,11
10,1.1654,1,2 x 5 =,smallFirst,smallProd,651,ACB,10.333333333333334,6,WAIS,1.19185,27,0
18,1.1999,1,9 x 2 =,largeFirst,smallProd,651,ACB,10.333333333333334,6,WAIS,1.19185,27,7
20,1.2493,1,5 x 4 =,largeFirst,smallProd,651,ACB,10.333333333333334,6,WAIS,1.19185,27,8
40,1.6667,1,8 x 5 =,largeFirst,largeProd,651,ACB,10.333333333333334,6,WAIS,1.19185,27,9
16,1.4826,1,2 x 8 =,smallFirst,smallProd,651,ACB,10.333333333333334,6,WAIS,1.19185,27,7
56,1.7831,1,8 x 7 =,largeFirst,largeProd,651,ACB,10.333333333333334,6,WAIS,1.19185,27,9
32,1.4497,1,4 x 8 =,smallFirst,largeProd,651,ACB,10.333333333333334,6,WAIS,1.19185,27,25
28,1.8825,1,7 x 4 =,largeFirst,largeProd,651,ACB,10.333333333333334,6,WAIS,1.19185,27,17
16,1.3827,1,4 x 4 =,tie,smallProd,651,ACB,10.333333333333334,6,WAIS,1.19185,27,5
21,1.016,1,7 x 3 =,largeFirst,smallProd,651,ACB,10.333333333333334,6,WAIS,1.19185,27,13
14,1.433,1,2 x 7 =,smallFirst,smallProd,651,ACB,10.333333333333334,6,WAIS,1.19185,27,4
27,1.5493,1,3 x 9 =,smallFirst,largeProd,651,ACB,10.333333333333334,6,WAIS,1.19185,27,9
15,1.5829,1,5 x 3 =,largeFirst,smallProd,651,ACB,10.333333333333334,6,WAIS,1.19185,27,2
35,1.6332,1,5 x 7 =,smallFirst,largeProd,651,ACB,10.333333333333334,6,WAIS,1.19185,27,7
24,2.4491,1,8 x 3 =,largeFirst,smallProd,651,ACB,10.333333333333334,6,WAIS,1.19185,27,13
63,1.9492,1,7 x 9 =,smallFirst,largeProd,651,ACB,10.333333333333334,6,WAIS,1.19185,27,17
36,1.8325,1,9 x 4 =,largeFirst,largeProd,651,ACB,10.333333333333334,6,WAIS,1.19185,27,9
9,1.1665,1,3 x 3 =,tie,smallProd,651,ACB,10.333333333333334,6,WAIS,1.19185,27,0
48,1.9164,1,6 x 8 =,smallFirst,largeProd,651,ACB,10.333333333333334,6,WAIS,1.19185,27,11
53,1.9993,0,7 x 6 =,largeFirst,largeProd,651,ACB,10.333333333333334,6,WAIS,1.19185,27,22
24,1.4672,1,6 x 4 =,largeFirst,smallProd,651,ACB,10.333333333333334,6,WAIS,1.19185,27,12
10,1.0164,1,5 x 2 =,largeFirst,smallProd,651,ACB,10.333333333333334,6,WAIS,1.19185,27,0
56,2.5829,1,7 x 8 =,smallFirst,largeProd,651,ACB,10.333333333333334,6,WAIS,1.19185,27,9
12,1.4832,1,4 x 3 =,largeFirst,smallProd,651,ACB,10.333333333333334,6,WAIS,1.19185,27,10
6,1.6663,1,3 x 2 =,largeFirst,smallProd,651,ACB,10.333333333333334,6,WAIS,1.19185,27,0
32,1.6658,1,8 x 4 =,largeFirst,largeProd,651,ACB,10.333333333333334,6,WAIS,1.19185,27,25
30,1.6162,1,6 x 5 =,largeFirst,largeProd,651,ACB,10.333333333333334,6,WAIS,1.19185,27,6
21,1.1326,1,3 x 7 =,smallFirst,smallProd,651,ACB,10.333333333333334,6,WAIS,1.19185,27,13
27,1.5998000000000001,1,9 x 3 =,largeFirst,largeProd,651,ACB,10.333333333333334,6,WAIS,1.19185,27,9
63,1.7829,1,9 x 7 =,largeFirst,largeProd,651,ACB,10.333333333333334,6,WAIS,1.19185,27,17
20,2.1491,1,4 x 5 =,smallFirst,smallProd,651,ACB,10.333333333333334,6,WAIS,1.19185,27,8
8,1.2832,1,2 x 4 =,smallFirst,smallProd,651,ACB,10.333333333333334,6,WAIS,1.19185,27,1
35,1.7326,1,7 x 5 =,largeFirst,largeProd,651,ACB,10.333333333333334,6,WAIS,1.19185,27,7
14,2.5825,1,7 x 2 =,largeFirst,smallProd,651,ACB,10.333333333333334,6,WAIS,1.19185,27,4
24,1.6164,1,3 x 8 =,smallFirst,smallProd,651,ACB,10.333333333333334,6,WAIS,1.19185,27,13
18,1.5497,1,6 x 3 =,largeFirst,smallProd,651,ACB,10.333333333333334,6,WAIS,1.19185,27,8
15,2.1661,1,3 x 5 =,smallFirst,smallProd,651,ACB,10.333333333333334,6,WAIS,1.19185,27,2
16,1.5825,1,8 x 2 =,largeFirst,smallProd,651,ACB,10.333333333333334,6,WAIS,1.19185,27,7
72,2.2325,1,8 x 9 =,smallFirst,largeProd,651,ACB,10.333333333333334,6,WAIS,1.19185,27,19
49,1.8998,1,7 x 7 =,tie,largeProd,651,ACB,10.333333333333334,6,WAIS,1.19185,27,7
40,1.3326,1,5 x 8 =,smallFirst,largeProd,651,ACB,10.333333333333334,6,WAIS,1.19185,27,9
45,1.5164,1,9 x 5 =,largeFirst,largeProd,651,ACB,10.333333333333334,6,WAIS,1.19185,27,6
12,1.0498,1,2 x 6 =,smallFirst,smallProd,651,ACB,10.333333333333334,6,WAIS,1.19185,27,3
54,2.0161,1,6 x 9 =,smallFirst,largeProd,651,ACB,10.333333333333334,6,WAIS,1.19185,27,13
36,2.433,1,4 x 9 =,smallFirst,largeProd,651,ACB,10.333333333333334,6,WAIS,1.19185,27,9
18,1.4991,1,2 x 9 =,smallFirst,smallProd,651,ACB,10.333333333333334,6,WAIS,1.19185,27,7
28,2.0329,1,4 x 7 =,smallFirst,largeProd,651,ACB,10.333333333333334,6,WAIS,1.19185,27,17
16,1.4995,1,8 x 2 =,largeFirst,smallProd,652,ACB,10.333333333333334,5,WAIS,1.34975,28,7
20,2.4663,1,4 x 5 =,smallFirst,smallProd,652,ACB,10.333333333333334,5,WAIS,1.34975,28,8
24,1.8161,1,3 x 8 =,smallFirst,smallProd,652,ACB,10.333333333333334,5,WAIS,1.34975,28,13
12,1.1826,1,4 x 3 =,largeFirst,smallProd,652,ACB,10.333333333333334,5,WAIS,1.34975,28,10
9,1.133,1,3 x 3 =,tie,smallProd,652,ACB,10.333333333333334,5,WAIS,1.34975,28,0
40,2.1823,1,5 x 8 =,smallFirst,largeProd,652,ACB,10.333333333333334,5,WAIS,1.34975,28,9
54,2.7824,1,6 x 9 =,smallFirst,largeProd,652,ACB,10.333333333333334,5,WAIS,1.34975,28,13
21,1.1831,1,3 x 7 =,smallFirst,smallProd,652,ACB,10.333333333333334,5,WAIS,1.34975,28,13
72,2.5325,1,8 x 9 =,smallFirst,largeProd,652,ACB,10.333333333333334,5,WAIS,1.34975,28,19
45,1.5163,1,9 x 5 =,largeFirst,largeProd,652,ACB,10.333333333333334,5,WAIS,1.34975,28,6
18,1.6,1,2 x 9 =,smallFirst,smallProd,652,ACB,10.333333333333334,5,WAIS,1.34975,28,7
36,1.6495,1,4 x 9 =,smallFirst,largeProd,652,ACB,10.333333333333334,5,WAIS,1.34975,28,9
35,2.3659,1,7 x 5 =,largeFirst,largeProd,652,ACB,10.333333333333334,5,WAIS,1.34975,28,7
27,2.8488,1,9 x 3 =,largeFirst,largeProd,652,ACB,10.333333333333334,5,WAIS,1.34975,28,9
14,3.2321,1,7 x 2 =,largeFirst,smallProd,652,ACB,10.333333333333334,5,WAIS,1.34975,28,4
32,2.2997,1,8 x 4 =,largeFirst,largeProd,652,ACB,10.333333333333334,5,WAIS,1.34975,28,25
63,1.8331,1,9 x 7 =,largeFirst,largeProd,652,ACB,10.333333333333334,5,WAIS,1.34975,28,17
24,2.7825,1,6 x 4 =,largeFirst,smallProd,652,ACB,10.333333333333334,5,WAIS,1.34975,28,12
56,2.8991,1,7 x 8 =,smallFirst,largeProd,652,ACB,10.333333333333334,5,WAIS,1.34975,28,9
6,1.4829,1,3 x 2 =,largeFirst,smallProd,652,ACB,10.333333333333334,5,WAIS,1.34975,28,0
48,2.4488,1,6 x 8 =,smallFirst,largeProd,652,ACB,10.333333333333334,5,WAIS,1.34975,28,11
54,2.2992,0,7 x 6 =,largeFirst,largeProd,652,ACB,10.333333333333334,5,WAIS,1.34975,28,22
15,1.8664,1,3 x 5 =,smallFirst,smallProd,652,ACB,10.333333333333334,5,WAIS,1.34975,28,2
10,1.1327,1,5 x 2 =,largeFirst,smallProd,652,ACB,10.333333333333334,5,WAIS,1.34975,28,0
18,1.6165,1,6 x 3 =,largeFirst,smallProd,652,ACB,10.333333333333334,5,WAIS,1.34975,28,8
8,2.166,1,2 x 4 =,smallFirst,smallProd,652,ACB,10.333333333333334,5,WAIS,1.34975,28,1
56,2.0162,0,4 x 7 =,smallFirst,largeProd,652,ACB,10.333333333333334,5,WAIS,1.34975,28,17
49,1.7163,1,7 x 7 =,tie,largeProd,652,ACB,10.333333333333334,5,WAIS,1.34975,28,7
12,1.0993,1,2 x 6 =,smallFirst,smallProd,652,ACB,10.333333333333334,5,WAIS,1.34975,28,3
30,2.8494,1,6 x 5 =,largeFirst,largeProd,652,ACB,10.333333333333334,5,WAIS,1.34975,28,6
27,2.4825,1,3 x 9 =,smallFirst,largeProd,652,ACB,10.333333333333334,5,WAIS,1.34975,28,9
16,1.6497,1,4 x 4 =,tie,smallProd,652,ACB,10.333333333333334,5,WAIS,1.34975,28,5
30,1.4823,1,5 x 6 =,smallFirst,largeProd,652,ACB,10.333333333333334,5,WAIS,1.34975,28,6
63,2.2321,1,7 x 9 =,smallFirst,largeProd,652,ACB,10.333333333333334,5,WAIS,1.34975,28,17
56,1.7829,1,8 x 7 =,largeFirst,largeProd,652,ACB,10.333333333333334,5,WAIS,1.34975,28,9
48,1.9496,1,8 x 6 =,largeFirst,largeProd,652,ACB,10.333333333333334,5,WAIS,1.34975,28,11
43,2.2827,0,6 x 7 =,smallFirst,largeProd,652,ACB,10.333333333333334,5,WAIS,1.34975,28,22
16,1.7996,1,2 x 8 =,smallFirst,smallProd,652,ACB,10.333333333333334,5,WAIS,1.34975,28,7
35,2.7661,1,5 x 7 =,smallFirst,largeProd,652,ACB,10.333333333333334,5,WAIS,1.34975,28,7
18,1.5158,1,3 x 6 =,smallFirst,smallProd,652,ACB,10.333333333333334,5,WAIS,1.34975,28,8
21,1.3326,1,7 x 3 =,largeFirst,smallProd,652,ACB,10.333333333333334,5,WAIS,1.34975,28,13
6,1.5909,1,2 x 3 =,smallFirst,smallProd,652,ACB,10.333333333333334,5,WAIS,1.34975,28,0
24,1.8671,1,8 x 3 =,largeFirst,smallProd,652,ACB,10.333333333333334,5,WAIS,1.34975,28,13
28,2.2494,1,7 x 4 =,largeFirst,largeProd,652,ACB,10.333333333333334,5,WAIS,1.34975,28,17
15,1.8996,1,5 x 3 =,largeFirst,smallProd,652,ACB,10.333333333333334,5,WAIS,1.34975,28,2
54,1.8503,1,9 x 6 =,largeFirst,largeProd,652,ACB,10.333333333333334,5,WAIS,1.34975,28,13
18,1.9997,1,9 x 2 =,largeFirst,smallProd,652,ACB,10.333333333333334,5,WAIS,1.34975,28,7
8,2.2669,1,4 x 2 =,largeFirst,smallProd,652,ACB,10.333333333333334,5,WAIS,1.34975,28,1
10,1.2164,1,2 x 5 =,smallFirst,smallProd,652,ACB,10.333333333333334,5,WAIS,1.34975,28,0
72,3.3663,1,9 x 8 =,largeFirst,largeProd,652,ACB,10.333333333333334,5,WAIS,1.34975,28,19
45,1.7835,1,5 x 9 =,smallFirst,largeProd,652,ACB,10.333333333333334,5,WAIS,1.34975,28,6
32,1.6331,1,4 x 8 =,smallFirst,largeProd,652,ACB,10.333333333333334,5,WAIS,1.34975,28,25
12,1.0165,1,6 x 2 =,largeFirst,smallProd,652,ACB,10.333333333333334,5,WAIS,1.34975,28,3
12,1.0672,1,3 x 4 =,smallFirst,smallProd,652,ACB,10.333333333333334,5,WAIS,1.34975,28,10
36,1.8504,1,9 x 4 =,largeFirst,largeProd,652,ACB,10.333333333333334,5,WAIS,1.34975,28,9
24,1.5001,1,4 x 6 =,smallFirst,smallProd,652,ACB,10.333333333333334,5,WAIS,1.34975,28,12
20,1.6166,1,5 x 4 =,largeFirst,smallProd,652,ACB,10.333333333333334,5,WAIS,1.34975,28,8
45,1.983,0,8 x 5 =,largeFirst,largeProd,652,ACB,10.333333333333334,5,WAIS,1.34975,28,9
64,2.3498,1,8 x 8 =,tie,largeProd,652,ACB,10.333333333333334,5,WAIS,1.34975,28,19
14,1.6346,1,2 x 7 =,smallFirst,smallProd,652,ACB,10.333333333333334,5,WAIS,1.34975,28,4
42,2.3496,1,6 x 7 =,smallFirst,largeProd,653,CBA,9,3,WAIS,1.3331,28,22
16,1.3996,1,4 x 4 =,tie,smallProd,653,CBA,9,3,WAIS,1.3331,28,5
18,2.1655,1,3 x 6 =,smallFirst,smallProd,653,CBA,9,3,WAIS,1.3331,28,8
64,1.5496,1,8 x 8 =,tie,largeProd,653,CBA,9,3,WAIS,1.3331,28,19
63,2.1329,1,7 x 9 =,smallFirst,largeProd,653,CBA,9,3,WAIS,1.3331,28,17
15,1.5492,1,5 x 3 =,largeFirst,smallProd,653,CBA,9,3,WAIS,1.3331,28,2
18,1.9488,1,9 x 2 =,largeFirst,smallProd,653,CBA,9,3,WAIS,1.3331,28,7
14,1.9833,1,2 x 7 =,smallFirst,smallProd,653,CBA,9,3,WAIS,1.3331,28,4
12,1.3502,1,6 x 2 =,largeFirst,smallProd,653,CBA,9,3,WAIS,1.3331,28,3
30,1.7662,1,5 x 6 =,smallFirst,largeProd,653,CBA,9,3,WAIS,1.3331,28,6
24,1.6494,1,4 x 6 =,smallFirst,smallProd,653,CBA,9,3,WAIS,1.3331,28,12
16,2.9159,1,2 x 8 =,smallFirst,smallProd,653,CBA,9,3,WAIS,1.3331,28,7
48,1.9659,1,8 x 6 =,largeFirst,largeProd,653,CBA,9,3,WAIS,1.3331,28,11
32,2.1321,1,4 x 8 =,smallFirst,largeProd,653,CBA,9,3,WAIS,1.3331,28,25
56,1.6328,1,8 x 7 =,largeFirst,largeProd,653,CBA,9,3,WAIS,1.3331,28,9
35,2.2829,1,5 x 7 =,smallFirst,largeProd,653,CBA,9,3,WAIS,1.3331,28,7
10,1.283,1,2 x 5 =,smallFirst,smallProd,653,CBA,9,3,WAIS,1.3331,28,0
400,2.8327,0,8 x 5 =,largeFirst,largeProd,653,CBA,9,3,WAIS,1.3331,28,9
12,2.4491,1,3 x 4 =,smallFirst,smallProd,653,CBA,9,3,WAIS,1.3331,28,10
6,2.0165,1,2 x 3 =,smallFirst,smallProd,653,CBA,9,3,WAIS,1.3331,28,0
54,1.9996,1,9 x 6 =,largeFirst,largeProd,653,CBA,9,3,WAIS,1.3331,28,13
45,2.3161,1,5 x 9 =,smallFirst,largeProd,653,CBA,9,3,WAIS,1.3331,28,6
8,1.4328,1,4 x 2 =,largeFirst,smallProd,653,CBA,9,3,WAIS,1.3331,28,1
27,2.1998,1,3 x 9 =,smallFirst,largeProd,653,CBA,9,3,WAIS,1.3331,28,9
36,1.9323,1,9 x 4 =,largeFirst,largeProd,653,CBA,9,3,WAIS,1.3331,28,9
24,1.6329,1,8 x 3 =,largeFirst,smallProd,653,CBA,9,3,WAIS,1.3331,28,13
72,2.216,1,9 x 8 =,largeFirst,largeProd,653,CBA,9,3,WAIS,1.3331,28,19
20,1.3992,1,5 x 4 =,largeFirst,smallProd,653,CBA,9,3,WAIS,1.3331,28,8
21,1.1663,1,7 x 3 =,largeFirst,smallProd,653,CBA,9,3,WAIS,1.3331,28,13
28,1.9652,1,7 x 4 =,largeFirst,largeProd,653,CBA,9,3,WAIS,1.3331,28,17
27,2.1663,1,9 x 3 =,largeFirst,largeProd,653,CBA,9,3,WAIS,1.3331,28,9
3,1.2995,0,8 x 4 =,largeFirst,largeProd,653,CBA,9,3,WAIS,1.3331,28,25
49,1.8494,1,7 x 7 =,tie,largeProd,653,CBA,9,3,WAIS,1.3331,28,7
12,1.266,1,4 x 3 =,largeFirst,smallProd,653,CBA,9,3,WAIS,1.3331,28,10
30,3.3826,1,6 x 5 =,largeFirst,largeProd,653,CBA,9,3,WAIS,1.3331,28,6
45,1.4662,1,9 x 5 =,largeFirst,largeProd,653,CBA,9,3,WAIS,1.3331,28,6
28,2.0325,1,4 x 7 =,smallFirst,largeProd,653,CBA,9,3,WAIS,1.3331,28,17
40,1.7159,1,5 x 8 =,smallFirst,largeProd,653,CBA,9,3,WAIS,1.3331,28,9
18,1.4991,1,2 x 9 =,smallFirst,smallProd,653,CBA,9,3,WAIS,1.3331,28,7
16,1.6662,1,8 x 2 =,largeFirst,smallProd,653,CBA,9,3,WAIS,1.3331,28,7
15,1.6829,1,3 x 5 =,smallFirst,smallProd,653,CBA,9,3,WAIS,1.3331,28,2
24,2.483,1,3 x 8 =,smallFirst,smallProd,653,CBA,9,3,WAIS,1.3331,28,13
8,1.3994,1,2 x 4 =,smallFirst,smallProd,653,CBA,9,3,WAIS,1.3331,28,1
6,1.4833,1,3 x 2 =,largeFirst,smallProd,653,CBA,9,3,WAIS,1.3331,28,0
24,1.6164,1,6 x 4 =,largeFirst,smallProd,653,CBA,9,3,WAIS,1.3331,28,12
14,1.2333,1,7 x 2 =,largeFirst,smallProd,653,CBA,9,3,WAIS,1.3331,28,4
10,1.1497,1,5 x 2 =,largeFirst,smallProd,653,CBA,9,3,WAIS,1.3331,28,0
56,1.7664,1,7 x 8 =,smallFirst,largeProd,653,CBA,9,3,WAIS,1.3331,28,9
18,2.3659,1,6 x 3 =,largeFirst,smallProd,653,CBA,9,3,WAIS,1.3331,28,8
36,1.8329,1,4 x 9 =,smallFirst,largeProd,653,CBA,9,3,WAIS,1.3331,28,9
42,1.7659,1,7 x 6 =,largeFirst,largeProd,653,CBA,9,3,WAIS,1.3331,28,22
72,4.2651,1,8 x 9 =,smallFirst,largeProd,653,CBA,9,3,WAIS,1.3331,28,19
35,1.7664,1,7 x 5 =,largeFirst,largeProd,653,CBA,9,3,WAIS,1.3331,28,7
27,1.8827,0,3 x 7 =,smallFirst,smallProd,653,CBA,9,3,WAIS,1.3331,28,13
9,1.2333,1,3 x 3 =,tie,smallProd,653,CBA,9,3,WAIS,1.3331,28,0
20,1.6998,1,4 x 5 =,smallFirst,smallProd,653,CBA,9,3,WAIS,1.3331,28,8
63,2.1995,1,9 x 7 =,largeFirst,largeProd,653,CBA,9,3,WAIS,1.3331,28,17
48,1.9661,1,6 x 8 =,smallFirst,largeProd,653,CBA,9,3,WAIS,1.3331,28,11
12,1.6659,1,2 x 6 =,smallFirst,smallProd,653,CBA,9,3,WAIS,1.3331,28,3
54,2.083,1,6 x 9 =,smallFirst,largeProd,653,CBA,9,3,WAIS,1.3331,28,13
12,1.4238,1,2 x 6 =,smallFirst,smallProd,656,BCA,10,9,WAIS,1.25745,28,3
15,1.5101,1,3 x 5 =,smallFirst,smallProd,656,BCA,10,9,WAIS,1.25745,28,2
8,1.26,1,2 x 4 =,smallFirst,smallProd,656,BCA,10,9,WAIS,1.25745,28,1
18,1.4433,1,2 x 9 =,smallFirst,smallProd,656,BCA,10,9,WAIS,1.25745,28,7
36,1.9874,0,9 x 7 =,largeFirst,largeProd,656,BCA,10,9,WAIS,1.25745,28,17
21,1.7745,1,3 x 7 =,smallFirst,smallProd,656,BCA,10,9,WAIS,1.25745,28,13
10,1.3463,1,5 x 2 =,largeFirst,smallProd,656,BCA,10,9,WAIS,1.25745,28,0
24,1.927,1,3 x 8 =,smallFirst,smallProd,656,BCA,10,9,WAIS,1.25745,28,13
35,1.7905,1,7 x 5 =,largeFirst,largeProd,656,BCA,10,9,WAIS,1.25745,28,7
72,1.7139,1,8 x 9 =,smallFirst,largeProd,656,BCA,10,9,WAIS,1.25745,28,19
27,1.8084,1,9 x 3 =,largeFirst,largeProd,656,BCA,10,9,WAIS,1.25745,28,9
9,1.133,1,3 x 3 =,tie,smallProd,656,BCA,10,9,WAIS,1.25745,28,0
48,2.1091,1,6 x 8 =,smallFirst,largeProd,656,BCA,10,9,WAIS,1.25745,28,11
24,2.0239,1,6 x 4 =,largeFirst,smallProd,656,BCA,10,9,WAIS,1.25745,28,12
20,1.6821,1,4 x 5 =,smallFirst,smallProd,656,BCA,10,9,WAIS,1.25745,28,8
12,1.2558,1,4 x 3 =,largeFirst,smallProd,656,BCA,10,9,WAIS,1.25745,28,10
49,2.1681,1,7 x 7 =,tie,largeProd,656,BCA,10,9,WAIS,1.25745,28,7
18,1.5464,1,6 x 3 =,largeFirst,smallProd,656,BCA,10,9,WAIS,1.25745,28,8
28,1.7702,1,4 x 7 =,smallFirst,largeProd,656,BCA,10,9,WAIS,1.25745,28,17
42,1.6788,1,7 x 6 =,largeFirst,largeProd,656,BCA,10,9,WAIS,1.25745,28,22
35,2.116,0,9 x 5 =,largeFirst,largeProd,656,BCA,10,9,WAIS,1.25745,28,6
54,9.6004,1,6 x 9 =,smallFirst,largeProd,656,BCA,10,9,WAIS,1.25745,28,13
6,4.0269,1,3 x 2 =,largeFirst,smallProd,656,BCA,10,9,WAIS,1.25745,28,0
32,1.9628,1,8 x 4 =,largeFirst,largeProd,656,BCA,10,9,WAIS,1.25745,28,25
56,3.3482,1,7 x 8 =,smallFirst,largeProd,656,BCA,10,9,WAIS,1.25745,28,9
16,2.5226,1,8 x 2 =,largeFirst,smallProd,656,BCA,10,9,WAIS,1.25745,28,7
40,3.2583,1,5 x 8 =,smallFirst,largeProd,656,BCA,10,9,WAIS,1.25745,28,9
30,3.1393,1,6 x 5 =,largeFirst,largeProd,656,BCA,10,9,WAIS,1.25745,28,6
36,5.1563,1,4 x 9 =,smallFirst,largeProd,656,BCA,10,9,WAIS,1.25745,28,9
14,1.6327,1,7 x 2 =,largeFirst,smallProd,656,BCA,10,9,WAIS,1.25745,28,4
16,1.9682,1,2 x 8 =,smallFirst,smallProd,656,BCA,10,9,WAIS,1.25745,28,7
40,1.8599,1,8 x 5 =,largeFirst,largeProd,656,BCA,10,9,WAIS,1.25745,28,9
54,3.7336,1,9 x 6 =,largeFirst,largeProd,656,BCA,10,9,WAIS,1.25745,28,13
24,2.1186,1,8 x 3 =,largeFirst,smallProd,656,BCA,10,9,WAIS,1.25745,28,13
27,6.4415,1,3 x 9 =,smallFirst,largeProd,656,BCA,10,9,WAIS,1.25745,28,9
18,1.4392,1,9 x 2 =,largeFirst,smallProd,656,BCA,10,9,WAIS,1.25745,28,7
14,1.691,1,2 x 7 =,smallFirst,smallProd,656,BCA,10,9,WAIS,1.25745,28,4
15,5.2427,1,5 x 3 =,largeFirst,smallProd,656,BCA,10,9,WAIS,1.25745,28,2
30,3.8189,1,5 x 6 =,smallFirst,largeProd,656,BCA,10,9,WAIS,1.25745,28,6
45,1.8823,1,5 x 9 =,smallFirst,largeProd,656,BCA,10,9,WAIS,1.25745,28,6
18,1.8533,1,3 x 6 =,smallFirst,smallProd,656,BCA,10,9,WAIS,1.25745,28,8
28,2.018,1,7 x 4 =,largeFirst,largeProd,656,BCA,10,9,WAIS,1.25745,28,17
12,1.422,1,3 x 4 =,smallFirst,smallProd,656,BCA,10,9,WAIS,1.25745,28,10
16,2.1362,0,8 x 8 =,tie,largeProd,656,BCA,10,9,WAIS,1.25745,28,19
6,3.9835,1,2 x 3 =,smallFirst,smallProd,656,BCA,10,9,WAIS,1.25745,28,0
63,2.4663,1,7 x 9 =,smallFirst,largeProd,656,BCA,10,9,WAIS,1.25745,28,17
24,3.1166,1,4 x 6 =,smallFirst,smallProd,656,BCA,10,9,WAIS,1.25745,28,12
8,1.2806,1,4 x 2 =,largeFirst,smallProd,656,BCA,10,9,WAIS,1.25745,28,1
21,1.469,1,7 x 3 =,largeFirst,smallProd,656,BCA,10,9,WAIS,1.25745,28,13
16,1.4681,1,4 x 4 =,tie,smallProd,656,BCA,10,9,WAIS,1.25745,28,5
36,2.0673,1,9 x 4 =,largeFirst,largeProd,656,BCA,10,9,WAIS,1.25745,28,9
10,1.3655,1,2 x 5 =,smallFirst,smallProd,656,BCA,10,9,WAIS,1.25745,28,0
72,1.9597,1,9 x 8 =,largeFirst,largeProd,656,BCA,10,9,WAIS,1.25745,28,19
35,5.0669,1,5 x 7 =,smallFirst,largeProd,656,BCA,10,9,WAIS,1.25745,28,7
56,1.7143,1,8 x 7 =,largeFirst,largeProd,656,BCA,10,9,WAIS,1.25745,28,9
32,1.8027,1,4 x 8 =,smallFirst,largeProd,656,BCA,10,9,WAIS,1.25745,28,25
48,5.3851,1,8 x 6 =,largeFirst,largeProd,656,BCA,10,9,WAIS,1.25745,28,11
12,2.4247,1,6 x 2 =,largeFirst,smallProd,656,BCA,10,9,WAIS,1.25745,28,3
42,1.5603,1,6 x 7 =,smallFirst,largeProd,656,BCA,10,9,WAIS,1.25745,28,22
20,1.2875,1,5 x 4 =,largeFirst,smallProd,656,BCA,10,9,WAIS,1.25745,28,8
36,2.2666,1,4 x 9 =,smallFirst,largeProd,657,ACB,9.333333333333334,4,WAIS,1.2577,27,9
54,2.4163,1,6 x 9 =,smallFirst,largeProd,657,ACB,9.333333333333334,4,WAIS,1.2577,27,13
48,2.2821,0,7 x 6 =,largeFirst,largeProd,657,ACB,9.333333333333334,4,WAIS,1.2577,27,22
6,1.4652,1,3 x 2 =,largeFirst,smallProd,657,ACB,9.333333333333334,4,WAIS,1.2577,27,0
56,1.8147,1,7 x 8 =,smallFirst,largeProd,657,ACB,9.333333333333334,4,WAIS,1.2577,27,9
18,1.9159,1,2 x 9 =,smallFirst,smallProd,657,ACB,9.333333333333334,4,WAIS,1.2577,27,7
14,1.2157,1,7 x 2 =,largeFirst,smallProd,657,ACB,9.333333333333334,4,WAIS,1.2577,27,4
12,1.1662,1,4 x 3 =,largeFirst,smallProd,657,ACB,9.333333333333334,4,WAIS,1.2577,27,10
27,2.0329,1,9 x 3 =,largeFirst,largeProd,657,ACB,9.333333333333334,4,WAIS,1.2577,27,9
8,2.1662,1,2 x 4 =,smallFirst,smallProd,657,ACB,9.333333333333334,4,WAIS,1.2577,27,1
21,1.3333,1,3 x 7 =,smallFirst,smallProd,657,ACB,9.333333333333334,4,WAIS,1.2577,27,13
45,1.5662,1,9 x 5 =,largeFirst,largeProd,657,ACB,9.333333333333334,4,WAIS,1.2577,27,6
35,1.6834,1,7 x 5 =,largeFirst,largeProd,657,ACB,9.333333333333334,4,WAIS,1.2577,27,7
63,1.9163,1,9 x 7 =,largeFirst,largeProd,657,ACB,9.333333333333334,4,WAIS,1.2577,27,17
30,1.9137,1,6 x 5 =,largeFirst,largeProd,657,ACB,9.333333333333334,4,WAIS,1.2577,27,6
72,3.5325,1,8 x 9 =,smallFirst,largeProd,657,ACB,9.333333333333334,4,WAIS,1.2577,27,19
35,1.7333,0,8 x 4 =,largeFirst,largeProd,657,ACB,9.333333333333334,4,WAIS,1.2577,27,25
15,2.0161,1,3 x 5 =,smallFirst,smallProd,657,ACB,9.333333333333334,4,WAIS,1.2577,27,2
10,1.283,1,5 x 2 =,largeFirst,smallProd,657,ACB,9.333333333333334,4,WAIS,1.2577,27,0
1,3.3074,0,8 x 2 =,largeFirst,smallProd,657,ACB,9.333333333333334,4,WAIS,1.2577,27,7
28,2.383,1,4 x 7 =,smallFirst,largeProd,657,ACB,9.333333333333334,4,WAIS,1.2577,27,17
48,2.183,1,6 x 8 =,smallFirst,largeProd,657,ACB,9.333333333333334,4,WAIS,1.2577,27,11
9,1.7828,1,3 x 3 =,tie,smallProd,657,ACB,9.333333333333334,4,WAIS,1.2577,27,0
24,2.0161,1,6 x 4 =,largeFirst,smallProd,657,ACB,9.333333333333334,4,WAIS,1.2577,27,12
20,1.4499,1,4 x 5 =,smallFirst,smallProd,657,ACB,9.333333333333334,4,WAIS,1.2577,27,8
12,1.105,1,2 x 6 =,smallFirst,smallProd,657,ACB,9.333333333333334,4,WAIS,1.2577,27,3
40,2.2326,1,5 x 8 =,smallFirst,largeProd,657,ACB,9.333333333333334,4,WAIS,1.2577,27,9
18,3.5324,1,6 x 3 =,largeFirst,smallProd,657,ACB,9.333333333333334,4,WAIS,1.2577,27,8
24,3.1489,1,3 x 8 =,smallFirst,smallProd,657,ACB,9.333333333333334,4,WAIS,1.2577,27,13
49,2.1163,1,7 x 7 =,tie,largeProd,657,ACB,9.333333333333334,4,WAIS,1.2577,27,7
12,1.3825,1,3 x 4 =,smallFirst,smallProd,657,ACB,9.333333333333334,4,WAIS,1.2577,27,10
56,1.8663,1,8 x 7 =,largeFirst,largeProd,657,ACB,9.333333333333334,4,WAIS,1.2577,27,9
15,1.8158,1,5 x 3 =,largeFirst,smallProd,657,ACB,9.333333333333334,4,WAIS,1.2577,27,2
30,1.7823,1,5 x 6 =,smallFirst,largeProd,657,ACB,9.333333333333334,4,WAIS,1.2577,27,6
45,1.8664,1,5 x 9 =,smallFirst,largeProd,657,ACB,9.333333333333334,4,WAIS,1.2577,27,6
10,1.4495,1,2 x 5 =,smallFirst,smallProd,657,ACB,9.333333333333334,4,WAIS,1.2577,27,0
12,1.068,1,6 x 2 =,largeFirst,smallProd,657,ACB,9.333333333333334,4,WAIS,1.2577,27,3
48,2.1492,1,8 x 6 =,largeFirst,largeProd,657,ACB,9.333333333333334,4,WAIS,1.2577,27,11
35,2.7829,1,5 x 7 =,smallFirst,largeProd,657,ACB,9.333333333333334,4,WAIS,1.2577,27,7
14,1.6518,1,2 x 7 =,smallFirst,smallProd,657,ACB,9.333333333333334,4,WAIS,1.2577,27,4
28,2.2966,1,7 x 4 =,largeFirst,largeProd,657,ACB,9.333333333333334,4,WAIS,1.2577,27,17
8,1.4666,1,4 x 2 =,largeFirst,smallProd,657,ACB,9.333333333333334,4,WAIS,1.2577,27,1
18,2.2656,1,3 x 6 =,smallFirst,smallProd,657,ACB,9.333333333333334,4,WAIS,1.2577,27,8
16,1.7658,1,2 x 8 =,smallFirst,smallProd,657,ACB,9.333333333333334,4,WAIS,1.2577,27,7
20,1.6653,1,5 x 4 =,largeFirst,smallProd,657,ACB,9.333333333333334,4,WAIS,1.2577,27,8
21,1.1488,1,7 x 3 =,largeFirst,smallProd,657,ACB,9.333333333333334,4,WAIS,1.2577,27,13
63,2.0329,1,7 x 9 =,smallFirst,largeProd,657,ACB,9.333333333333334,4,WAIS,1.2577,27,17
16,2.6827,1,4 x 4 =,tie,smallProd,657,ACB,9.333333333333334,4,WAIS,1.2577,27,5
64,1.5662,1,8 x 8 =,tie,largeProd,657,ACB,9.333333333333334,4,WAIS,1.2577,27,19
32,1.6156,0,9 x 4 =,largeFirst,largeProd,657,ACB,9.333333333333334,4,WAIS,1.2577,27,9
36,2.3986,0,4 x 8 =,smallFirst,largeProd,657,ACB,9.333333333333334,4,WAIS,1.2577,27,25
40,1.8152,1,8 x 5 =,largeFirst,largeProd,657,ACB,9.333333333333334,4,WAIS,1.2577,27,9
6,1.8995,1,2 x 3 =,smallFirst,smallProd,657,ACB,9.333333333333334,4,WAIS,1.2577,27,0
54,2.4657,1,9 x 6 =,largeFirst,largeProd,657,ACB,9.333333333333334,4,WAIS,1.2577,27,13
24,2.3154,1,4 x 6 =,smallFirst,smallProd,657,ACB,9.333333333333334,4,WAIS,1.2577,27,12
21,1.8325,0,8 x 3 =,largeFirst,smallProd,657,ACB,9.333333333333334,4,WAIS,1.2577,27,13
27,2.5492,1,3 x 9 =,smallFirst,largeProd,657,ACB,9.333333333333334,4,WAIS,1.2577,27,9
18,2.0992,1,9 x 2 =,largeFirst,smallProd,657,ACB,9.333333333333334,4,WAIS,1.2577,27,7
72,1.9828,1,9 x 8 =,largeFirst,largeProd,657,ACB,9.333333333333334,4,WAIS,1.2577,27,19
42,2.4649,1,6 x 7 =,smallFirst,largeProd,657,ACB,9.333333333333334,4,WAIS,1.2577,27,22
56,2.1165,1,8 x 7 =,largeFirst,largeProd,658,CAB,9.333333333333334,5,WAIS,1.23285,26,9
6,1.7495,1,2 x 3 =,smallFirst,smallProd,658,CAB,9.333333333333334,5,WAIS,1.23285,26,0
24,1.8161,1,4 x 6 =,smallFirst,smallProd,658,CAB,9.333333333333334,5,WAIS,1.23285,26,12
64,1.6814,1,8 x 8 =,tie,largeProd,658,CAB,9.333333333333334,5,WAIS,1.23285,26,19
42,2.8987,1,6 x 7 =,smallFirst,largeProd,658,CAB,9.333333333333334,5,WAIS,1.23285,26,22
72,2.0328,1,9 x 8 =,largeFirst,largeProd,658,CAB,9.333333333333334,5,WAIS,1.23285,26,19
12,1.2824,1,3 x 4 =,smallFirst,smallProd,658,CAB,9.333333333333334,5,WAIS,1.23285,26,10
28,1.9151,1,7 x 4 =,largeFirst,largeProd,658,CAB,9.333333333333334,5,WAIS,1.23285,26,17
10,1.3314,1,2 x 5 =,smallFirst,smallProd,658,CAB,9.333333333333334,5,WAIS,1.23285,26,0
24,2.916,1,8 x 3 =,largeFirst,smallProd,658,CAB,9.333333333333334,5,WAIS,1.23285,26,13
35,2.015,1,5 x 7 =,smallFirst,largeProd,658,CAB,9.333333333333334,5,WAIS,1.23285,26,7
16,1.5654,1,4 x 4 =,tie,smallProd,658,CAB,9.333333333333334,5,WAIS,1.23285,26,5
18,1.7161,1,3 x 6 =,smallFirst,smallProd,658,CAB,9.333333333333334,5,WAIS,1.23285,26,8
21,1.8505,1,7 x 3 =,largeFirst,smallProd,658,CAB,9.333333333333334,5,WAIS,1.23285,26,13
45,1.816,1,5 x 9 =,smallFirst,largeProd,658,CAB,9.333333333333334,5,WAIS,1.23285,26,6
12,1.0651,1,6 x 2 =,largeFirst,smallProd,658,CAB,9.333333333333334,5,WAIS,1.23285,26,3
32,4.4824,1,4 x 8 =,smallFirst,largeProd,658,CAB,9.333333333333334,5,WAIS,1.23285,26,25
40,1.966,1,8 x 5 =,largeFirst,largeProd,658,CAB,9.333333333333334,5,WAIS,1.23285,26,9
28,2.0182,0,9 x 4 =,largeFirst,largeProd,658,CAB,9.333333333333334,5,WAIS,1.23285,26,9
16,1.6006,1,2 x 8 =,smallFirst,smallProd,658,CAB,9.333333333333334,5,WAIS,1.23285,26,7
15,1.4324,1,5 x 3 =,largeFirst,smallProd,658,CAB,9.333333333333334,5,WAIS,1.23285,26,2
30,1.5667,1,5 x 6 =,smallFirst,largeProd,658,CAB,9.333333333333334,5,WAIS,1.23285,26,6
9,2.0159,0,4 x 2 =,largeFirst,smallProd,658,CAB,9.333333333333334,5,WAIS,1.23285,26,1
63,2.033,1,7 x 9 =,smallFirst,largeProd,658,CAB,9.333333333333334,5,WAIS,1.23285,26,17
54,2.332,1,9 x 6 =,largeFirst,largeProd,658,CAB,9.333333333333334,5,WAIS,1.23285,26,13
20,1.3498000000000001,1,5 x 4 =,largeFirst,smallProd,658,CAB,9.333333333333334,5,WAIS,1.23285,26,8
27,2.299,1,3 x 9 =,smallFirst,largeProd,658,CAB,9.333333333333334,5,WAIS,1.23285,26,9
14,1.2329,1,2 x 7 =,smallFirst,smallProd,658,CAB,9.333333333333334,5,WAIS,1.23285,26,4
48,2.2325,1,8 x 6 =,largeFirst,largeProd,658,CAB,9.333333333333334,5,WAIS,1.23285,26,11
18,1.2507,1,9 x 2 =,largeFirst,smallProd,658,CAB,9.333333333333334,5,WAIS,1.23285,26,7
6,1.4664,1,3 x 2 =,largeFirst,smallProd,658,CAB,9.333333333333334,5,WAIS,1.23285,26,0
27,1.7822,1,9 x 3 =,largeFirst,largeProd,658,CAB,9.333333333333334,5,WAIS,1.23285,26,9
12,0.966,1,4 x 3 =,largeFirst,smallProd,658,CAB,9.333333333333334,5,WAIS,1.23285,26,10
16,1.6996,1,8 x 2 =,largeFirst,smallProd,658,CAB,9.333333333333334,5,WAIS,1.23285,26,7
28,1.5831,1,4 x 7 =,smallFirst,largeProd,658,CAB,9.333333333333334,5,WAIS,1.23285,26,17
49,2.2831,1,7 x 7 =,tie,largeProd,658,CAB,9.333333333333334,5,WAIS,1.23285,26,7
14,1.1989,1,7 x 2 =,largeFirst,smallProd,658,CAB,9.333333333333334,5,WAIS,1.23285,26,4
48,1.6994,0,7 x 6 =,largeFirst,largeProd,658,CAB,9.333333333333334,5,WAIS,1.23285,26,22
35,1.633,1,7 x 5 =,largeFirst,largeProd,658,CAB,9.333333333333334,5,WAIS,1.23285,26,7
18,2.9146,1,6 x 3 =,largeFirst,smallProd,658,CAB,9.333333333333334,5,WAIS,1.23285,26,8
21,1.2579,1,3 x 7 =,smallFirst,smallProd,658,CAB,9.333333333333334,5,WAIS,1.23285,26,13
40,1.8513,1,5 x 8 =,smallFirst,largeProd,658,CAB,9.333333333333334,5,WAIS,1.23285,26,9
9,1.1998,1,3 x 3 =,tie,smallProd,658,CAB,9.333333333333334,5,WAIS,1.23285,26,0
15,2.0661,1,3 x 5 =,smallFirst,smallProd,658,CAB,9.333333333333334,5,WAIS,1.23285,26,2
48,5.1471,1,6 x 8 =,smallFirst,largeProd,658,CAB,9.333333333333334,5,WAIS,1.23285,26,11
45,1.5154,1,9 x 5 =,largeFirst,largeProd,658,CAB,9.333333333333334,5,WAIS,1.23285,26,6
24,3.9317,1,3 x 8 =,smallFirst,smallProd,658,CAB,9.333333333333334,5,WAIS,1.23285,26,13
28,2.7653,0,9 x 7 =,largeFirst,largeProd,658,CAB,9.333333333333334,5,WAIS,1.23285,26,17
24,1.8825,1,6 x 4 =,largeFirst,smallProd,658,CAB,9.333333333333334,5,WAIS,1.23285,26,12
72,2.3661,1,8 x 9 =,smallFirst,largeProd,658,CAB,9.333333333333334,5,WAIS,1.23285,26,19
8,1.8491,1,2 x 4 =,smallFirst,smallProd,658,CAB,9.333333333333334,5,WAIS,1.23285,26,1
12,1.1916,1,2 x 6 =,smallFirst,smallProd,658,CAB,9.333333333333334,5,WAIS,1.23285,26,3
32,1.6143,1,8 x 4 =,largeFirst,largeProd,658,CAB,9.333333333333334,5,WAIS,1.23285,26,25
56,2.0833,1,7 x 8 =,smallFirst,largeProd,658,CAB,9.333333333333334,5,WAIS,1.23285,26,9
54,5.0647,1,6 x 9 =,smallFirst,largeProd,658,CAB,9.333333333333334,5,WAIS,1.23285,26,13
20,1.883,1,4 x 5 =,smallFirst,smallProd,658,CAB,9.333333333333334,5,WAIS,1.23285,26,8
18,1.6303,1,2 x 9 =,smallFirst,smallProd,658,CAB,9.333333333333334,5,WAIS,1.23285,26,7
10,1.131,1,5 x 2 =,largeFirst,smallProd,658,CAB,9.333333333333334,5,WAIS,1.23285,26,0
30,1.5804,1,6 x 5 =,largeFirst,largeProd,658,CAB,9.333333333333334,5,WAIS,1.23285,26,6
36,3.0001,1,4 x 9 =,smallFirst,largeProd,658,CAB,9.333333333333334,5,WAIS,1.23285,26,9
56,2.3346,1,7 x 8 =,smallFirst,largeProd,659,ACB,4.333333333333333,9,WAIS,1.4604,27,9
6,1.6171,1,3 x 2 =,largeFirst,smallProd,659,ACB,4.333333333333333,9,WAIS,1.4604,27,0
8,1.4179,1,2 x 4 =,smallFirst,smallProd,659,ACB,4.333333333333333,9,WAIS,1.4604,27,1
24,2.5522,1,3 x 8 =,smallFirst,smallProd,659,ACB,4.333333333333333,9,WAIS,1.4604,27,13
30,2.0846,1,6 x 5 =,largeFirst,largeProd,659,ACB,4.333333333333333,9,WAIS,1.4604,27,6
21,1.4692,1,3 x 7 =,smallFirst,smallProd,659,ACB,4.333333333333333,9,WAIS,1.4604,27,13
27,7.6247,1,9 x 3 =,largeFirst,largeProd,659,ACB,4.333333333333333,9,WAIS,1.4604,27,9
15,1.9766,1,3 x 5 =,smallFirst,smallProd,659,ACB,4.333333333333333,9,WAIS,1.4604,27,2
13,2.8539,0,4 x 3 =,largeFirst,smallProd,659,ACB,4.333333333333333,9,WAIS,1.4604,27,10
72,13.4313,1,8 x 9 =,smallFirst,largeProd,659,ACB,4.333333333333333,9,WAIS,1.4604,27,19
9,1.8184,1,3 x 3 =,tie,smallProd,659,ACB,4.333333333333333,9,WAIS,1.4604,27,0
20,2.035,1,4 x 5 =,smallFirst,smallProd,659,ACB,4.333333333333333,9,WAIS,1.4604,27,8
10,2.0864,1,5 x 2 =,largeFirst,smallProd,659,ACB,4.333333333333333,9,WAIS,1.4604,27,0
18,2.5696,1,6 x 3 =,largeFirst,smallProd,659,ACB,4.333333333333333,9,WAIS,1.4604,27,8
49,1.9009,1,7 x 7 =,tie,largeProd,659,ACB,4.333333333333333,9,WAIS,1.4604,27,7
12,2.7856,1,2 x 6 =,smallFirst,smallProd,659,ACB,4.333333333333333,9,WAIS,1.4604,27,3
45,1.8517,1,9 x 5 =,largeFirst,largeProd,659,ACB,4.333333333333333,9,WAIS,1.4604,27,6
NA,1.6667,0,8 x 4 =,largeFirst,largeProd,659,ACB,4.333333333333333,9,WAIS,1.4604,27,25
42,4.7881,1,7 x 6 =,largeFirst,largeProd,659,ACB,4.333333333333333,9,WAIS,1.4604,27,22
54,5.5892,1,6 x 9 =,smallFirst,largeProd,659,ACB,4.333333333333333,9,WAIS,1.4604,27,13
50,2.4507,0,5 x 8 =,smallFirst,largeProd,659,ACB,4.333333333333333,9,WAIS,1.4604,27,9
35,7.2739,1,7 x 5 =,largeFirst,largeProd,659,ACB,4.333333333333333,9,WAIS,1.4604,27,7
18,3.2533,1,2 x 9 =,smallFirst,smallProd,659,ACB,4.333333333333333,9,WAIS,1.4604,27,7
14,2.0685,1,7 x 2 =,largeFirst,smallProd,659,ACB,4.333333333333333,9,WAIS,1.4604,27,4
48,8.2922,1,6 x 8 =,smallFirst,largeProd,659,ACB,4.333333333333333,9,WAIS,1.4604,27,11
36,6.84,1,4 x 9 =,smallFirst,largeProd,659,ACB,4.333333333333333,9,WAIS,1.4604,27,9
72,16.3172,0,9 x 7 =,largeFirst,largeProd,659,ACB,4.333333333333333,9,WAIS,1.4604,27,17
24,13.7988,1,6 x 4 =,largeFirst,smallProd,659,ACB,4.333333333333333,9,WAIS,1.4604,27,12
28,5.7729,1,4 x 7 =,smallFirst,largeProd,659,ACB,4.333333333333333,9,WAIS,1.4604,27,17
16,2.6521,1,8 x 2 =,largeFirst,smallProd,659,ACB,4.333333333333333,9,WAIS,1.4604,27,7
24,2.7352,1,8 x 3 =,largeFirst,smallProd,659,ACB,4.333333333333333,9,WAIS,1.4604,27,13
16,2.2355,1,4 x 4 =,tie,smallProd,659,ACB,4.333333333333333,9,WAIS,1.4604,27,5
72,7.2239,1,9 x 8 =,largeFirst,largeProd,659,ACB,4.333333333333333,9,WAIS,1.4604,27,19
20,2.3363,1,5 x 4 =,largeFirst,smallProd,659,ACB,4.333333333333333,9,WAIS,1.4604,27,8
30,2.7851,1,5 x 6 =,smallFirst,largeProd,659,ACB,4.333333333333333,9,WAIS,1.4604,27,6
18,3.3698,1,3 x 6 =,smallFirst,smallProd,659,ACB,4.333333333333333,9,WAIS,1.4604,27,8
24,2.4698,1,4 x 6 =,smallFirst,smallProd,659,ACB,4.333333333333333,9,WAIS,1.4604,27,12
63,11.5126,1,7 x 9 =,smallFirst,largeProd,659,ACB,4.333333333333333,9,WAIS,1.4604,27,17
48,7.4409,1,8 x 6 =,largeFirst,largeProd,659,ACB,4.333333333333333,9,WAIS,1.4604,27,11
12,1.3347,1,3 x 4 =,smallFirst,smallProd,659,ACB,4.333333333333333,9,WAIS,1.4604,27,10
56,4.7877,0,9 x 6 =,largeFirst,largeProd,659,ACB,4.333333333333333,9,WAIS,1.4604,27,13
27,8.5923,1,3 x 9 =,smallFirst,largeProd,659,ACB,4.333333333333333,9,WAIS,1.4604,27,9
6,2.185,1,2 x 3 =,smallFirst,smallProd,659,ACB,4.333333333333333,9,WAIS,1.4604,27,0
8,1.8,1,4 x 2 =,largeFirst,smallProd,659,ACB,4.333333333333333,9,WAIS,1.4604,27,1
21,1.5347,1,7 x 3 =,largeFirst,smallProd,659,ACB,4.333333333333333,9,WAIS,1.4604,27,13
15,1.7198,1,5 x 3 =,largeFirst,smallProd,659,ACB,4.333333333333333,9,WAIS,1.4604,27,2
35,2.1697,1,5 x 7 =,smallFirst,largeProd,659,ACB,4.333333333333333,9,WAIS,1.4604,27,7
36,7.0251,1,9 x 4 =,largeFirst,largeProd,659,ACB,4.333333333333333,9,WAIS,1.4604,27,9
14,1.7174,1,2 x 7 =,smallFirst,smallProd,659,ACB,4.333333333333333,9,WAIS,1.4604,27,4
12,3.4192,1,6 x 2 =,largeFirst,smallProd,659,ACB,4.333333333333333,9,WAIS,1.4604,27,3
28,5.472,1,7 x 4 =,largeFirst,largeProd,659,ACB,4.333333333333333,9,WAIS,1.4604,27,17
10,2.1021,1,2 x 5 =,smallFirst,smallProd,659,ACB,4.333333333333333,9,WAIS,1.4604,27,0
40,2.0018,1,8 x 5 =,largeFirst,largeProd,659,ACB,4.333333333333333,9,WAIS,1.4604,27,9
64,5.4886,1,8 x 8 =,tie,largeProd,659,ACB,4.333333333333333,9,WAIS,1.4604,27,19
45,2.202,1,5 x 9 =,smallFirst,largeProd,659,ACB,4.333333333333333,9,WAIS,1.4604,27,6
16,1.7681,1,2 x 8 =,smallFirst,smallProd,659,ACB,4.333333333333333,9,WAIS,1.4604,27,7
32,6.2579,1,4 x 8 =,smallFirst,largeProd,659,ACB,4.333333333333333,9,WAIS,1.4604,27,25
56,6.6572,1,8 x 7 =,largeFirst,largeProd,659,ACB,4.333333333333333,9,WAIS,1.4604,27,9
42,2.7519,1,6 x 7 =,smallFirst,largeProd,659,ACB,4.333333333333333,9,WAIS,1.4604,27,22
18,1.8179,1,9 x 2 =,largeFirst,smallProd,659,ACB,4.333333333333333,9,WAIS,1.4604,27,7
12,1.3327,1,2 x 6 =,smallFirst,smallProd,660,CAB,9.333333333333334,6,WAIS,1.2572,27,3
45,1.4492,1,9 x 5 =,largeFirst,largeProd,660,CAB,9.333333333333334,6,WAIS,1.2572,27,6
30,1.5992,1,6 x 5 =,largeFirst,largeProd,660,CAB,9.333333333333334,6,WAIS,1.2572,27,6
21,1.7827,1,3 x 7 =,smallFirst,smallProd,660,CAB,9.333333333333334,6,WAIS,1.2572,27,13
10,1.3159,1,5 x 2 =,largeFirst,smallProd,660,CAB,9.333333333333334,6,WAIS,1.2572,27,0
24,2.216,1,6 x 4 =,largeFirst,smallProd,660,CAB,9.333333333333334,6,WAIS,1.2572,27,12
8,1.5998000000000001,1,2 x 4 =,smallFirst,smallProd,660,CAB,9.333333333333334,6,WAIS,1.2572,27,1
5,1.3661,0,3 x 2 =,largeFirst,smallProd,660,CAB,9.333333333333334,6,WAIS,1.2572,27,0
16,1.9328,1,8 x 2 =,largeFirst,smallProd,660,CAB,9.333333333333334,6,WAIS,1.2572,27,7
32,2.0828,1,8 x 4 =,largeFirst,largeProd,660,CAB,9.333333333333334,6,WAIS,1.2572,27,25
35,2.2827,1,7 x 5 =,largeFirst,largeProd,660,CAB,9.333333333333334,6,WAIS,1.2572,27,7
42,1.9828,1,7 x 6 =,largeFirst,largeProd,660,CAB,9.333333333333334,6,WAIS,1.2572,27,22
15,1.483,1,3 x 5 =,smallFirst,smallProd,660,CAB,9.333333333333334,6,WAIS,1.2572,27,2
9,1.3162,1,3 x 3 =,tie,smallProd,660,CAB,9.333333333333334,6,WAIS,1.2572,27,0
36,2.3992,1,4 x 9 =,smallFirst,largeProd,660,CAB,9.333333333333334,6,WAIS,1.2572,27,9
72,3.2989,1,8 x 9 =,smallFirst,largeProd,660,CAB,9.333333333333334,6,WAIS,1.2572,27,19
18,2.866,1,6 x 3 =,largeFirst,smallProd,660,CAB,9.333333333333334,6,WAIS,1.2572,27,8
18,1.4327,1,2 x 9 =,smallFirst,smallProd,660,CAB,9.333333333333334,6,WAIS,1.2572,27,7
14,1.8498000000000001,1,7 x 2 =,largeFirst,smallProd,660,CAB,9.333333333333334,6,WAIS,1.2572,27,4
40,1.8331,1,5 x 8 =,smallFirst,largeProd,660,CAB,9.333333333333334,6,WAIS,1.2572,27,9
63,2.0162,1,9 x 7 =,largeFirst,largeProd,660,CAB,9.333333333333334,6,WAIS,1.2572,27,17
20,2.1659,1,4 x 5 =,smallFirst,smallProd,660,CAB,9.333333333333334,6,WAIS,1.2572,27,8
48,6.9483,1,6 x 8 =,smallFirst,largeProd,660,CAB,9.333333333333334,6,WAIS,1.2572,27,11
49,3.8658,1,7 x 7 =,tie,largeProd,660,CAB,9.333333333333334,6,WAIS,1.2572,27,7
27,2.5326,1,9 x 3 =,largeFirst,largeProd,660,CAB,9.333333333333334,6,WAIS,1.2572,27,9
56,3.6487,1,7 x 8 =,smallFirst,largeProd,660,CAB,9.333333333333334,6,WAIS,1.2572,27,9
24,13.3307,1,3 x 8 =,smallFirst,smallProd,660,CAB,9.333333333333334,6,WAIS,1.2572,27,13
54,2.749,1,6 x 9 =,smallFirst,largeProd,660,CAB,9.333333333333334,6,WAIS,1.2572,27,13
28,1.7823,1,4 x 7 =,smallFirst,largeProd,660,CAB,9.333333333333334,6,WAIS,1.2572,27,17
12,1.1157,1,4 x 3 =,largeFirst,smallProd,660,CAB,9.333333333333334,6,WAIS,1.2572,27,10
32,4.2658,1,4 x 8 =,smallFirst,largeProd,660,CAB,9.333333333333334,6,WAIS,1.2572,27,25
72,1.8994,1,9 x 8 =,largeFirst,largeProd,660,CAB,9.333333333333334,6,WAIS,1.2572,27,19
12,1.2155,1,3 x 4 =,smallFirst,smallProd,660,CAB,9.333333333333334,6,WAIS,1.2572,27,10
14,1.3493,1,2 x 7 =,smallFirst,smallProd,660,CAB,9.333333333333334,6,WAIS,1.2572,27,4
16,1.5657,1,4 x 4 =,tie,smallProd,660,CAB,9.333333333333334,6,WAIS,1.2572,27,5
10,1.3157,1,2 x 5 =,smallFirst,smallProd,660,CAB,9.333333333333334,6,WAIS,1.2572,27,0
18,1.7168,1,3 x 6 =,smallFirst,smallProd,660,CAB,9.333333333333334,6,WAIS,1.2572,27,8
48,2.1992,1,8 x 6 =,largeFirst,largeProd,660,CAB,9.333333333333334,6,WAIS,1.2572,27,11
15,1.398,1,5 x 3 =,largeFirst,smallProd,660,CAB,9.333333333333334,6,WAIS,1.2572,27,2
24,2.1001,1,8 x 3 =,largeFirst,smallProd,660,CAB,9.333333333333334,6,WAIS,1.2572,27,13
36,2.016,1,9 x 4 =,largeFirst,largeProd,660,CAB,9.333333333333334,6,WAIS,1.2572,27,9
56,2.4327,0,9 x 6 =,largeFirst,largeProd,660,CAB,9.333333333333334,6,WAIS,1.2572,27,13
18,2.3992,1,9 x 2 =,largeFirst,smallProd,660,CAB,9.333333333333334,6,WAIS,1.2572,27,7
20,1.5662,1,5 x 4 =,largeFirst,smallProd,660,CAB,9.333333333333334,6,WAIS,1.2572,27,8
16,1.9992,1,2 x 8 =,smallFirst,smallProd,660,CAB,9.333333333333334,6,WAIS,1.2572,27,7
30,1.6331,1,5 x 6 =,smallFirst,largeProd,660,CAB,9.333333333333334,6,WAIS,1.2572,27,6
12,0.9661,1,6 x 2 =,largeFirst,smallProd,660,CAB,9.333333333333334,6,WAIS,1.2572,27,3
35,2.0661,1,5 x 7 =,smallFirst,largeProd,660,CAB,9.333333333333334,6,WAIS,1.2572,27,7
42,3.2002,1,6 x 7 =,smallFirst,largeProd,660,CAB,9.333333333333334,6,WAIS,1.2572,27,22
6,1.8828,1,2 x 3 =,smallFirst,smallProd,660,CAB,9.333333333333334,6,WAIS,1.2572,27,0
56,1.6163,1,8 x 7 =,largeFirst,largeProd,660,CAB,9.333333333333334,6,WAIS,1.2572,27,9
40,1.8827,1,8 x 5 =,largeFirst,largeProd,660,CAB,9.333333333333334,6,WAIS,1.2572,27,9
45,1.4163,1,5 x 9 =,smallFirst,largeProd,660,CAB,9.333333333333334,6,WAIS,1.2572,27,6
21,1.1663,1,7 x 3 =,largeFirst,smallProd,660,CAB,9.333333333333334,6,WAIS,1.2572,27,13
24,1.4498,1,4 x 6 =,smallFirst,smallProd,660,CAB,9.333333333333334,6,WAIS,1.2572,27,12
64,1.4997,1,8 x 8 =,tie,largeProd,660,CAB,9.333333333333334,6,WAIS,1.2572,27,19
53,2.4658,0,7 x 9 =,smallFirst,largeProd,660,CAB,9.333333333333334,6,WAIS,1.2572,27,17
27,2.6327,1,3 x 9 =,smallFirst,largeProd,660,CAB,9.333333333333334,6,WAIS,1.2572,27,9
8,2.7162,1,4 x 2 =,largeFirst,smallProd,660,CAB,9.333333333333334,6,WAIS,1.2572,27,1
28,2.1993,1,7 x 4 =,largeFirst,largeProd,660,CAB,9.333333333333334,6,WAIS,1.2572,27,17
35,2.4798,1,7 x 5 =,largeFirst,largeProd,667,BAC,9.333333333333334,6,WAIS,1.45885,28,7
12,1.7975,1,4 x 3 =,largeFirst,smallProd,667,BAC,9.333333333333334,6,WAIS,1.45885,28,10
32,3.2795,1,8 x 4 =,largeFirst,largeProd,667,BAC,9.333333333333334,6,WAIS,1.45885,28,25
24,4.1143,1,3 x 8 =,smallFirst,smallProd,667,BAC,9.333333333333334,6,WAIS,1.45885,28,13
36,15.5359,1,4 x 9 =,smallFirst,largeProd,667,BAC,9.333333333333334,6,WAIS,1.45885,28,9
45,1.7175,1,9 x 5 =,largeFirst,largeProd,667,BAC,9.333333333333334,6,WAIS,1.45885,28,6
9,1.3656,1,3 x 3 =,tie,smallProd,667,BAC,9.333333333333334,6,WAIS,1.45885,28,0
56,36.832,1,7 x 8 =,smallFirst,largeProd,667,BAC,9.333333333333334,6,WAIS,1.45885,28,9
48,8.0429,1,6 x 8 =,smallFirst,largeProd,667,BAC,9.333333333333334,6,WAIS,1.45885,28,11
8,1.7984,1,2 x 4 =,smallFirst,smallProd,667,BAC,9.333333333333334,6,WAIS,1.45885,28,1
24,2.6672,1,6 x 4 =,largeFirst,smallProd,667,BAC,9.333333333333334,6,WAIS,1.45885,28,12
18,1.7829,1,2 x 9 =,smallFirst,smallProd,667,BAC,9.333333333333334,6,WAIS,1.45885,28,7
40,2.4481,1,5 x 8 =,smallFirst,largeProd,667,BAC,9.333333333333334,6,WAIS,1.45885,28,9
81,3.0109,0,8 x 9 =,smallFirst,largeProd,667,BAC,9.333333333333334,6,WAIS,1.45885,28,19
63,8.3256,1,9 x 7 =,largeFirst,largeProd,667,BAC,9.333333333333334,6,WAIS,1.45885,28,17
10,1.7314,1,5 x 2 =,largeFirst,smallProd,667,BAC,9.333333333333334,6,WAIS,1.45885,28,0
41,4.4454,0,7 x 6 =,largeFirst,largeProd,667,BAC,9.333333333333334,6,WAIS,1.45885,28,22
20,1.7148,1,4 x 5 =,smallFirst,smallProd,667,BAC,9.333333333333334,6,WAIS,1.45885,28,8
30,3.053,1,6 x 5 =,largeFirst,largeProd,667,BAC,9.333333333333334,6,WAIS,1.45885,28,6
14,1.4996,1,7 x 2 =,largeFirst,smallProd,667,BAC,9.333333333333334,6,WAIS,1.45885,28,4
54,4.3639,1,6 x 9 =,smallFirst,largeProd,667,BAC,9.333333333333334,6,WAIS,1.45885,28,13
16,2.3826,1,8 x 2 =,largeFirst,smallProd,667,BAC,9.333333333333334,6,WAIS,1.45885,28,7
15,2.1161,1,3 x 5 =,smallFirst,smallProd,667,BAC,9.333333333333334,6,WAIS,1.45885,28,2
28,2.0466,1,4 x 7 =,smallFirst,largeProd,667,BAC,9.333333333333334,6,WAIS,1.45885,28,17
12,2.0479,1,2 x 6 =,smallFirst,smallProd,667,BAC,9.333333333333334,6,WAIS,1.45885,28,3
21,1.7164,1,3 x 7 =,smallFirst,smallProd,667,BAC,9.333333333333334,6,WAIS,1.45885,28,13
6,2.2321,1,3 x 2 =,largeFirst,smallProd,667,BAC,9.333333333333334,6,WAIS,1.45885,28,0
49,5.645,1,7 x 7 =,tie,largeProd,667,BAC,9.333333333333334,6,WAIS,1.45885,28,7
18,1.8334,1,6 x 3 =,largeFirst,smallProd,667,BAC,9.333333333333334,6,WAIS,1.45885,28,8
18,2.4984,0,9 x 3 =,largeFirst,largeProd,667,BAC,9.333333333333334,6,WAIS,1.45885,28,9
8,3.6805,1,4 x 2 =,largeFirst,smallProd,667,BAC,9.333333333333334,6,WAIS,1.45885,28,1
42,7.1944,1,6 x 7 =,smallFirst,largeProd,667,BAC,9.333333333333334,6,WAIS,1.45885,28,22
37,2.6303,0,5 x 7 =,smallFirst,largeProd,667,BAC,9.333333333333334,6,WAIS,1.45885,28,7
63,4.979,1,7 x 9 =,smallFirst,largeProd,667,BAC,9.333333333333334,6,WAIS,1.45885,28,17
64,3.414,1,8 x 8 =,tie,largeProd,667,BAC,9.333333333333334,6,WAIS,1.45885,28,19
30,2.0142,1,5 x 6 =,smallFirst,largeProd,667,BAC,9.333333333333334,6,WAIS,1.45885,28,6
24,2.0482,1,8 x 3 =,largeFirst,smallProd,667,BAC,9.333333333333334,6,WAIS,1.45885,28,13
27,7.745,1,3 x 9 =,smallFirst,largeProd,667,BAC,9.333333333333334,6,WAIS,1.45885,28,9
48,5.4786,1,8 x 6 =,largeFirst,largeProd,667,BAC,9.333333333333334,6,WAIS,1.45885,28,11
36,6.1078,1,9 x 4 =,largeFirst,largeProd,667,BAC,9.333333333333334,6,WAIS,1.45885,28,9
40,2.7634,1,8 x 5 =,largeFirst,largeProd,667,BAC,9.333333333333334,6,WAIS,1.45885,28,9
20,1.6955,1,5 x 4 =,largeFirst,smallProd,667,BAC,9.333333333333334,6,WAIS,1.45885,28,8
10,1.5807,1,2 x 5 =,smallFirst,smallProd,667,BAC,9.333333333333334,6,WAIS,1.45885,28,0
21,1.1529,0,2 x 3 =,smallFirst,smallProd,667,BAC,9.333333333333334,6,WAIS,1.45885,28,0
32,4.7955,1,4 x 8 =,smallFirst,largeProd,667,BAC,9.333333333333334,6,WAIS,1.45885,28,25
16,2.0328,1,2 x 8 =,smallFirst,smallProd,667,BAC,9.333333333333334,6,WAIS,1.45885,28,7
28,2.2819,1,7 x 4 =,largeFirst,largeProd,667,BAC,9.333333333333334,6,WAIS,1.45885,28,17
18,1.8661,1,9 x 2 =,largeFirst,smallProd,667,BAC,9.333333333333334,6,WAIS,1.45885,28,7
14,1.5165,1,2 x 7 =,smallFirst,smallProd,667,BAC,9.333333333333334,6,WAIS,1.45885,28,4
21,1.4498,1,7 x 3 =,largeFirst,smallProd,667,BAC,9.333333333333334,6,WAIS,1.45885,28,13
12,1.3455,1,3 x 4 =,smallFirst,smallProd,667,BAC,9.333333333333334,6,WAIS,1.45885,28,10
54,5.0482,1,9 x 6 =,largeFirst,largeProd,667,BAC,9.333333333333334,6,WAIS,1.45885,28,13
12,1.4832,1,6 x 2 =,largeFirst,smallProd,667,BAC,9.333333333333334,6,WAIS,1.45885,28,3
56,3.5146,1,8 x 7 =,largeFirst,largeProd,667,BAC,9.333333333333334,6,WAIS,1.45885,28,9
24,1.9986,1,4 x 6 =,smallFirst,smallProd,667,BAC,9.333333333333334,6,WAIS,1.45885,28,12
16,2.0146,1,4 x 4 =,tie,smallProd,667,BAC,9.333333333333334,6,WAIS,1.45885,28,5
45,4.8801,1,5 x 9 =,smallFirst,largeProd,667,BAC,9.333333333333334,6,WAIS,1.45885,28,6
72,5.0584,1,9 x 8 =,largeFirst,largeProd,667,BAC,9.333333333333334,6,WAIS,1.45885,28,19
15,2.231,1,5 x 3 =,largeFirst,smallProd,667,BAC,9.333333333333334,6,WAIS,1.45885,28,2
18,1.7336,1,3 x 6 =,smallFirst,smallProd,667,BAC,9.333333333333334,6,WAIS,1.45885,28,8
40,1.7815,1,5 x 8 =,smallFirst,largeProd,668,BCA,6,8,WAIS,1.52325,28,9
10,1.3491,1,5 x 2 =,largeFirst,smallProd,668,BCA,6,8,WAIS,1.52325,28,0
36,4.1285,1,4 x 9 =,smallFirst,largeProd,668,BCA,6,8,WAIS,1.52325,28,9
21,1.7977,1,3 x 7 =,smallFirst,smallProd,668,BCA,6,8,WAIS,1.52325,28,13
40,2.0978,0,9 x 5 =,largeFirst,largeProd,668,BCA,6,8,WAIS,1.52325,28,6
12,1.2984,1,2 x 6 =,smallFirst,smallProd,668,BCA,6,8,WAIS,1.52325,28,3
32,3.0795,1,8 x 4 =,largeFirst,largeProd,668,BCA,6,8,WAIS,1.52325,28,25
16,1.8144,1,8 x 2 =,largeFirst,smallProd,668,BCA,6,8,WAIS,1.52325,28,7
30,1.6808,1,6 x 5 =,largeFirst,largeProd,668,BCA,6,8,WAIS,1.52325,28,6
72,5.6932,1,8 x 9 =,smallFirst,largeProd,668,BCA,6,8,WAIS,1.52325,28,19
24,1.6477,1,6 x 4 =,largeFirst,smallProd,668,BCA,6,8,WAIS,1.52325,28,12
56,3.7132,0,6 x 8 =,smallFirst,largeProd,668,BCA,6,8,WAIS,1.52325,28,11
9,1.8314,1,3 x 3 =,tie,smallProd,668,BCA,6,8,WAIS,1.52325,28,0
27,2.6137,1,9 x 3 =,largeFirst,largeProd,668,BCA,6,8,WAIS,1.52325,28,9
18,1.9813,1,6 x 3 =,largeFirst,smallProd,668,BCA,6,8,WAIS,1.52325,28,8
6,4.3616,1,3 x 2 =,largeFirst,smallProd,668,BCA,6,8,WAIS,1.52325,28,0
24,1.9634,1,3 x 8 =,smallFirst,smallProd,668,BCA,6,8,WAIS,1.52325,28,13
15,1.6981,1,3 x 5 =,smallFirst,smallProd,668,BCA,6,8,WAIS,1.52325,28,2
8,1.8478,1,2 x 4 =,smallFirst,smallProd,668,BCA,6,8,WAIS,1.52325,28,1
63,8.3237,0,6 x 9 =,smallFirst,largeProd,668,BCA,6,8,WAIS,1.52325,28,13
42,2.4633,1,7 x 6 =,largeFirst,largeProd,668,BCA,6,8,WAIS,1.52325,28,22
56,3.0127,1,7 x 8 =,smallFirst,largeProd,668,BCA,6,8,WAIS,1.52325,28,9
18,1.798,1,2 x 9 =,smallFirst,smallProd,668,BCA,6,8,WAIS,1.52325,28,7
42,3.9956,0,7 x 7 =,tie,largeProd,668,BCA,6,8,WAIS,1.52325,28,7
64,5.3939,0,9 x 7 =,largeFirst,largeProd,668,BCA,6,8,WAIS,1.52325,28,17
12,4.3783,1,4 x 3 =,largeFirst,smallProd,668,BCA,6,8,WAIS,1.52325,28,10
14,1.3151,1,7 x 2 =,largeFirst,smallProd,668,BCA,6,8,WAIS,1.52325,28,4
20,2.0311,1,4 x 5 =,smallFirst,smallProd,668,BCA,6,8,WAIS,1.52325,28,8
35,2.3347,1,7 x 5 =,largeFirst,largeProd,668,BCA,6,8,WAIS,1.52325,28,7
42,1.831,0,4 x 7 =,smallFirst,largeProd,668,BCA,6,8,WAIS,1.52325,28,17
16,2.1634,1,2 x 8 =,smallFirst,smallProd,668,BCA,6,8,WAIS,1.52325,28,7
36,4.8111,1,9 x 4 =,largeFirst,largeProd,668,BCA,6,8,WAIS,1.52325,28,9
40,2.6301,1,8 x 5 =,largeFirst,largeProd,668,BCA,6,8,WAIS,1.52325,28,9
45,2.8137,1,5 x 9 =,smallFirst,largeProd,668,BCA,6,8,WAIS,1.52325,28,6
64,11.7699,1,8 x 8 =,tie,largeProd,668,BCA,6,8,WAIS,1.52325,28,19
27,6.4262,1,3 x 9 =,smallFirst,largeProd,668,BCA,6,8,WAIS,1.52325,28,9
27,6.2762,0,8 x 3 =,largeFirst,smallProd,668,BCA,6,8,WAIS,1.52325,28,13
6,1.7808,1,2 x 3 =,smallFirst,smallProd,668,BCA,6,8,WAIS,1.52325,28,0
28,6.2596,1,7 x 4 =,largeFirst,largeProd,668,BCA,6,8,WAIS,1.52325,28,17
12,1.2148,1,6 x 2 =,largeFirst,smallProd,668,BCA,6,8,WAIS,1.52325,28,3
56,8.4906,0,9 x 6 =,largeFirst,largeProd,668,BCA,6,8,WAIS,1.52325,28,13
12,1.7145,1,3 x 4 =,smallFirst,smallProd,668,BCA,6,8,WAIS,1.52325,28,10
15,1.5481,1,5 x 3 =,largeFirst,smallProd,668,BCA,6,8,WAIS,1.52325,28,2
20,1.4812,1,5 x 4 =,largeFirst,smallProd,668,BCA,6,8,WAIS,1.52325,28,8
16,1.6475,1,4 x 4 =,tie,smallProd,668,BCA,6,8,WAIS,1.52325,28,5
35,3.1297,1,5 x 7 =,smallFirst,largeProd,668,BCA,6,8,WAIS,1.52325,28,7
72,9.4397,1,9 x 8 =,largeFirst,largeProd,668,BCA,6,8,WAIS,1.52325,28,19
8,1.7814,1,4 x 2 =,largeFirst,smallProd,668,BCA,6,8,WAIS,1.52325,28,1
21,3.0133,1,7 x 3 =,largeFirst,smallProd,668,BCA,6,8,WAIS,1.52325,28,13
10,1.931,1,2 x 5 =,smallFirst,smallProd,668,BCA,6,8,WAIS,1.52325,28,0
14,1.8145,1,2 x 7 =,smallFirst,smallProd,668,BCA,6,8,WAIS,1.52325,28,4
42,2.1137,1,6 x 7 =,smallFirst,largeProd,668,BCA,6,8,WAIS,1.52325,28,22
32,2.2468,1,4 x 8 =,smallFirst,largeProd,668,BCA,6,8,WAIS,1.52325,28,25
24,2.0808,1,4 x 6 =,smallFirst,smallProd,668,BCA,6,8,WAIS,1.52325,28,12
56,13.152,0,8 x 6 =,largeFirst,largeProd,668,BCA,6,8,WAIS,1.52325,28,11
30,2.3305,1,5 x 6 =,smallFirst,largeProd,668,BCA,6,8,WAIS,1.52325,28,6
63,5.161,1,7 x 9 =,smallFirst,largeProd,668,BCA,6,8,WAIS,1.52325,28,17
18,1.7145,1,3 x 6 =,smallFirst,smallProd,668,BCA,6,8,WAIS,1.52325,28,8
56,4.8442,1,8 x 7 =,largeFirst,largeProd,668,BCA,6,8,WAIS,1.52325,28,9
18,1.3813,1,9 x 2 =,largeFirst,smallProd,668,BCA,6,8,WAIS,1.52325,28,7
20,2.2831,1,5 x 4 =,largeFirst,smallProd,672,ACB,10.333333333333334,6,WAIS,1.1338,27,8
36,3.333,0,7 x 9 =,smallFirst,largeProd,672,ACB,10.333333333333334,6,WAIS,1.1338,27,17
21,2.3117,0,8 x 3 =,largeFirst,smallProd,672,ACB,10.333333333333334,6,WAIS,1.1338,27,13
48,1.4767,1,8 x 6 =,largeFirst,largeProd,672,ACB,10.333333333333334,6,WAIS,1.1338,27,11
12,1.0053,1,3 x 4 =,smallFirst,smallProd,672,ACB,10.333333333333334,6,WAIS,1.1338,27,10
16,1.2238,1,2 x 8 =,smallFirst,smallProd,672,ACB,10.333333333333334,6,WAIS,1.1338,27,7
30,1.1941,1,5 x 6 =,smallFirst,largeProd,672,ACB,10.333333333333334,6,WAIS,1.1338,27,6
18,1.2319,1,9 x 2 =,largeFirst,smallProd,672,ACB,10.333333333333334,6,WAIS,1.1338,27,7
64,5.5658,1,8 x 8 =,tie,largeProd,672,ACB,10.333333333333334,6,WAIS,1.1338,27,19
16,1.2368,1,4 x 4 =,tie,smallProd,672,ACB,10.333333333333334,6,WAIS,1.1338,27,5
15,1.1326,1,5 x 3 =,largeFirst,smallProd,672,ACB,10.333333333333334,6,WAIS,1.1338,27,2
18,1.3043,1,3 x 6 =,smallFirst,smallProd,672,ACB,10.333333333333334,6,WAIS,1.1338,27,8
21,1.0203,1,7 x 3 =,largeFirst,smallProd,672,ACB,10.333333333333334,6,WAIS,1.1338,27,13
8,1.1526,1,4 x 2 =,largeFirst,smallProd,672,ACB,10.333333333333334,6,WAIS,1.1338,27,1
36,5.7591,0,6 x 7 =,smallFirst,largeProd,672,ACB,10.333333333333334,6,WAIS,1.1338,27,22
28,3.2936,1,7 x 4 =,largeFirst,largeProd,672,ACB,10.333333333333334,6,WAIS,1.1338,27,17
27,3.3576,1,3 x 9 =,smallFirst,largeProd,672,ACB,10.333333333333334,6,WAIS,1.1338,27,9
56,1.8029,1,8 x 7 =,largeFirst,largeProd,672,ACB,10.333333333333334,6,WAIS,1.1338,27,9
10,2.1439,1,2 x 5 =,smallFirst,smallProd,672,ACB,10.333333333333334,6,WAIS,1.1338,27,0
3,1.9074,0,9 x 4 =,largeFirst,largeProd,672,ACB,10.333333333333334,6,WAIS,1.1338,27,9
12,1.9422,1,6 x 2 =,largeFirst,smallProd,672,ACB,10.333333333333334,6,WAIS,1.1338,27,3
45,2.0386,1,5 x 9 =,smallFirst,largeProd,672,ACB,10.333333333333334,6,WAIS,1.1338,27,6
35,1.904,1,5 x 7 =,smallFirst,largeProd,672,ACB,10.333333333333334,6,WAIS,1.1338,27,7
32,2.3679,1,4 x 8 =,smallFirst,largeProd,672,ACB,10.333333333333334,6,WAIS,1.1338,27,25
71,12.6385,0,9 x 8 =,largeFirst,largeProd,672,ACB,10.333333333333334,6,WAIS,1.1338,27,19
40,4.0309,1,8 x 5 =,largeFirst,largeProd,672,ACB,10.333333333333334,6,WAIS,1.1338,27,9
14,2.2701,1,2 x 7 =,smallFirst,smallProd,672,ACB,10.333333333333334,6,WAIS,1.1338,27,4
2,1.4832,0,4 x 6 =,smallFirst,smallProd,672,ACB,10.333333333333334,6,WAIS,1.1338,27,12
36,12.3199,0,9 x 6 =,largeFirst,largeProd,672,ACB,10.333333333333334,6,WAIS,1.1338,27,13
6,4.6795,1,2 x 3 =,smallFirst,smallProd,672,ACB,10.333333333333334,6,WAIS,1.1338,27,0
28,2.4731,1,4 x 7 =,smallFirst,largeProd,672,ACB,10.333333333333334,6,WAIS,1.1338,27,17
12,1.0512,1,2 x 6 =,smallFirst,smallProd,672,ACB,10.333333333333334,6,WAIS,1.1338,27,3
6,1.0458,1,3 x 2 =,largeFirst,smallProd,672,ACB,10.333333333333334,6,WAIS,1.1338,27,0
21,2.3761,0,3 x 8 =,smallFirst,smallProd,672,ACB,10.333333333333334,6,WAIS,1.1338,27,13
21,1.4104,1,3 x 7 =,smallFirst,smallProd,672,ACB,10.333333333333334,6,WAIS,1.1338,27,13
18,1.3318,1,6 x 3 =,largeFirst,smallProd,672,ACB,10.333333333333334,6,WAIS,1.1338,27,8
48,2.0885,1,6 x 8 =,smallFirst,largeProd,672,ACB,10.333333333333334,6,WAIS,1.1338,27,11
14,1.1396,1,7 x 2 =,largeFirst,smallProd,672,ACB,10.333333333333334,6,WAIS,1.1338,27,4
56,6.7101,0,9 x 7 =,largeFirst,largeProd,672,ACB,10.333333333333334,6,WAIS,1.1338,27,17
18,1.597,0,9 x 3 =,largeFirst,largeProd,672,ACB,10.333333333333334,6,WAIS,1.1338,27,9
36,2.1379,1,4 x 9 =,smallFirst,largeProd,672,ACB,10.333333333333334,6,WAIS,1.1338,27,9
54,3.3497,1,6 x 9 =,smallFirst,largeProd,672,ACB,10.333333333333334,6,WAIS,1.1338,27,13
18,1.3542,1,2 x 9 =,smallFirst,smallProd,672,ACB,10.333333333333334,6,WAIS,1.1338,27,7
15,2.1324,1,3 x 5 =,smallFirst,smallProd,672,ACB,10.333333333333334,6,WAIS,1.1338,27,2
32,1.9322,1,8 x 4 =,largeFirst,largeProd,672,ACB,10.333333333333334,6,WAIS,1.1338,27,25
8,1.3828,1,2 x 4 =,smallFirst,smallProd,672,ACB,10.333333333333334,6,WAIS,1.1338,27,1
40,2.8726,1,5 x 8 =,smallFirst,largeProd,672,ACB,10.333333333333334,6,WAIS,1.1338,27,9
16,1.2881,1,8 x 2 =,largeFirst,smallProd,672,ACB,10.333333333333334,6,WAIS,1.1338,27,7
30,1.3879,1,6 x 5 =,largeFirst,largeProd,672,ACB,10.333333333333334,6,WAIS,1.1338,27,6
41,5.1005,0,7 x 7 =,tie,largeProd,672,ACB,10.333333333333334,6,WAIS,1.1338,27,7
54,18.2999,0,7 x 8 =,smallFirst,largeProd,672,ACB,10.333333333333334,6,WAIS,1.1338,27,9
12,1.8067,1,4 x 3 =,largeFirst,smallProd,672,ACB,10.333333333333334,6,WAIS,1.1338,27,10
31,8.7217,0,7 x 6 =,largeFirst,largeProd,672,ACB,10.333333333333334,6,WAIS,1.1338,27,22
24,2.3444,1,6 x 4 =,largeFirst,smallProd,672,ACB,10.333333333333334,6,WAIS,1.1338,27,12
35,1.4048,1,7 x 5 =,largeFirst,largeProd,672,ACB,10.333333333333334,6,WAIS,1.1338,27,7
56,2.3663,0,8 x 9 =,smallFirst,largeProd,672,ACB,10.333333333333334,6,WAIS,1.1338,27,19
9,2.1212,1,3 x 3 =,tie,smallProd,672,ACB,10.333333333333334,6,WAIS,1.1338,27,0
45,3.6672,1,9 x 5 =,largeFirst,largeProd,672,ACB,10.333333333333334,6,WAIS,1.1338,27,6
10,1.2062,1,5 x 2 =,largeFirst,smallProd,672,ACB,10.333333333333334,6,WAIS,1.1338,27,0
20,1.905,1,4 x 5 =,smallFirst,smallProd,672,ACB,10.333333333333334,6,WAIS,1.1338,27,8
40,1.3831,1,5 x 8 =,smallFirst,largeProd,674,BCA,9.666666666666666,9,WAIS,1.26655,28,9
42,1.25,1,7 x 6 =,largeFirst,largeProd,674,BCA,9.666666666666666,9,WAIS,1.26655,28,22
21,3.0499,1,3 x 7 =,smallFirst,smallProd,674,BCA,9.666666666666666,9,WAIS,1.26655,28,13
18,1.633,1,2 x 9 =,smallFirst,smallProd,674,BCA,9.666666666666666,9,WAIS,1.26655,28,7
15,1.2332,1,3 x 5 =,smallFirst,smallProd,674,BCA,9.666666666666666,9,WAIS,1.26655,28,2
6,1.3161,1,3 x 2 =,largeFirst,smallProd,674,BCA,9.666666666666666,9,WAIS,1.26655,28,0
24,1.4498,1,6 x 4 =,largeFirst,smallProd,674,BCA,9.666666666666666,9,WAIS,1.26655,28,12
72,2.0836,1,8 x 9 =,smallFirst,largeProd,674,BCA,9.666666666666666,9,WAIS,1.26655,28,19
16,1.5331,1,8 x 2 =,largeFirst,smallProd,674,BCA,9.666666666666666,9,WAIS,1.26655,28,7
27,1.783,1,9 x 3 =,largeFirst,largeProd,674,BCA,9.666666666666666,9,WAIS,1.26655,28,9
20,1.5997,1,4 x 5 =,smallFirst,smallProd,674,BCA,9.666666666666666,9,WAIS,1.26655,28,8
32,4.1831,1,8 x 4 =,largeFirst,largeProd,674,BCA,9.666666666666666,9,WAIS,1.26655,28,25
8,2.2497,1,2 x 4 =,smallFirst,smallProd,674,BCA,9.666666666666666,9,WAIS,1.26655,28,1
28,1.7164,1,4 x 7 =,smallFirst,largeProd,674,BCA,9.666666666666666,9,WAIS,1.26655,28,17
18,1.8665,1,6 x 3 =,largeFirst,smallProd,674,BCA,9.666666666666666,9,WAIS,1.26655,28,8
9,1.3997,1,3 x 3 =,tie,smallProd,674,BCA,9.666666666666666,9,WAIS,1.26655,28,0
36,1.7327,1,4 x 9 =,smallFirst,largeProd,674,BCA,9.666666666666666,9,WAIS,1.26655,28,9
63,2.2664,1,9 x 7 =,largeFirst,largeProd,674,BCA,9.666666666666666,9,WAIS,1.26655,28,17
12,1.3166,1,4 x 3 =,largeFirst,smallProd,674,BCA,9.666666666666666,9,WAIS,1.26655,28,10
49,1.6664,1,7 x 7 =,tie,largeProd,674,BCA,9.666666666666666,9,WAIS,1.26655,28,7
24,1.4997,1,3 x 8 =,smallFirst,smallProd,674,BCA,9.666666666666666,9,WAIS,1.26655,28,13
14,1.2834,1,7 x 2 =,largeFirst,smallProd,674,BCA,9.666666666666666,9,WAIS,1.26655,28,4
35,1.6163,1,7 x 5 =,largeFirst,largeProd,674,BCA,9.666666666666666,9,WAIS,1.26655,28,7
1,1.0831,0,2 x 6 =,smallFirst,smallProd,674,BCA,9.666666666666666,9,WAIS,1.26655,28,3
56,2.366,1,7 x 8 =,smallFirst,largeProd,674,BCA,9.666666666666666,9,WAIS,1.26655,28,9
54,1.5163,1,6 x 9 =,smallFirst,largeProd,674,BCA,9.666666666666666,9,WAIS,1.26655,28,13
10,1.3158,1,5 x 2 =,largeFirst,smallProd,674,BCA,9.666666666666666,9,WAIS,1.26655,28,0
48,1.8331,1,6 x 8 =,smallFirst,largeProd,674,BCA,9.666666666666666,9,WAIS,1.26655,28,11
45,1.6668,1,9 x 5 =,largeFirst,largeProd,674,BCA,9.666666666666666,9,WAIS,1.26655,28,6
30,2.9996,1,6 x 5 =,largeFirst,largeProd,674,BCA,9.666666666666666,9,WAIS,1.26655,28,6
24,1.4499,1,4 x 6 =,smallFirst,smallProd,674,BCA,9.666666666666666,9,WAIS,1.26655,28,12
56,1.5996,1,8 x 7 =,largeFirst,largeProd,674,BCA,9.666666666666666,9,WAIS,1.26655,28,9
10,1.3664,1,2 x 5 =,smallFirst,smallProd,674,BCA,9.666666666666666,9,WAIS,1.26655,28,0
14,1.1331,1,2 x 7 =,smallFirst,smallProd,674,BCA,9.666666666666666,9,WAIS,1.26655,28,4
48,1.8162,1,8 x 6 =,largeFirst,largeProd,674,BCA,9.666666666666666,9,WAIS,1.26655,28,11
72,2.1164,1,9 x 8 =,largeFirst,largeProd,674,BCA,9.666666666666666,9,WAIS,1.26655,28,19
36,1.4995,1,9 x 4 =,largeFirst,largeProd,674,BCA,9.666666666666666,9,WAIS,1.26655,28,9
28,2.2664,1,7 x 4 =,largeFirst,largeProd,674,BCA,9.666666666666666,9,WAIS,1.26655,28,17
12,1.1997,1,3 x 4 =,smallFirst,smallProd,674,BCA,9.666666666666666,9,WAIS,1.26655,28,10
30,1.3332,1,5 x 6 =,smallFirst,largeProd,674,BCA,9.666666666666666,9,WAIS,1.26655,28,6
27,1.6667,1,3 x 9 =,smallFirst,largeProd,674,BCA,9.666666666666666,9,WAIS,1.26655,28,9
32,2.283,1,4 x 8 =,smallFirst,largeProd,674,BCA,9.666666666666666,9,WAIS,1.26655,28,25
20,1.3001,1,5 x 4 =,largeFirst,smallProd,674,BCA,9.666666666666666,9,WAIS,1.26655,28,8
8,1.5829,1,4 x 2 =,largeFirst,smallProd,674,BCA,9.666666666666666,9,WAIS,1.26655,28,1
54,1.4332,1,9 x 6 =,largeFirst,largeProd,674,BCA,9.666666666666666,9,WAIS,1.26655,28,13
16,1.9497,1,2 x 8 =,smallFirst,smallProd,674,BCA,9.666666666666666,9,WAIS,1.26655,28,7
40,1.9496,1,8 x 5 =,largeFirst,largeProd,674,BCA,9.666666666666666,9,WAIS,1.26655,28,9
21,1.0662,1,7 x 3 =,largeFirst,smallProd,674,BCA,9.666666666666666,9,WAIS,1.26655,28,13
18,1.6331,1,3 x 6 =,smallFirst,smallProd,674,BCA,9.666666666666666,9,WAIS,1.26655,28,8
24,1.2333,1,8 x 3 =,largeFirst,smallProd,674,BCA,9.666666666666666,9,WAIS,1.26655,28,13
35,1.3829,1,5 x 7 =,smallFirst,largeProd,674,BCA,9.666666666666666,9,WAIS,1.26655,28,7
12,1.2331,1,6 x 2 =,largeFirst,smallProd,674,BCA,9.666666666666666,9,WAIS,1.26655,28,3
42,1.7999,1,6 x 7 =,smallFirst,largeProd,674,BCA,9.666666666666666,9,WAIS,1.26655,28,22
18,2.4825,1,9 x 2 =,largeFirst,smallProd,674,BCA,9.666666666666666,9,WAIS,1.26655,28,7
16,2.7663,1,4 x 4 =,tie,smallProd,674,BCA,9.666666666666666,9,WAIS,1.26655,28,5
63,2.0665,1,7 x 9 =,smallFirst,largeProd,674,BCA,9.666666666666666,9,WAIS,1.26655,28,17
6,1.4998,1,2 x 3 =,smallFirst,smallProd,674,BCA,9.666666666666666,9,WAIS,1.26655,28,0
6,1.4165,0,8 x 8 =,tie,largeProd,674,BCA,9.666666666666666,9,WAIS,1.26655,28,19
56,2.1634,1,8 x 7 =,largeFirst,largeProd,675,ACB,9.666666666666666,6,WAIS,1.423,27,9
64,1.9094,1,8 x 8 =,tie,largeProd,675,ACB,9.666666666666666,6,WAIS,1.423,27,19
40,1.7173,1,8 x 5 =,largeFirst,largeProd,675,ACB,9.666666666666666,6,WAIS,1.423,27,9
18,1.912,1,9 x 2 =,largeFirst,smallProd,675,ACB,9.666666666666666,6,WAIS,1.423,27,7
36,1.9476,1,9 x 4 =,largeFirst,largeProd,675,ACB,9.666666666666666,6,WAIS,1.423,27,9
48,1.9136,1,8 x 6 =,largeFirst,largeProd,675,ACB,9.666666666666666,6,WAIS,1.423,27,11
16,1.8779,1,2 x 8 =,smallFirst,smallProd,675,ACB,9.666666666666666,6,WAIS,1.423,27,7
21,1.4818,1,7 x 3 =,largeFirst,smallProd,675,ACB,9.666666666666666,6,WAIS,1.423,27,13
27,2.1484,1,3 x 9 =,smallFirst,largeProd,675,ACB,9.666666666666666,6,WAIS,1.423,27,9
14,1.8307,1,2 x 7 =,smallFirst,smallProd,675,ACB,9.666666666666666,6,WAIS,1.423,27,4
18,2.2634,1,3 x 6 =,smallFirst,smallProd,675,ACB,9.666666666666666,6,WAIS,1.423,27,8
24,1.9466,1,8 x 3 =,largeFirst,smallProd,675,ACB,9.666666666666666,6,WAIS,1.423,27,13
16,1.5808,1,4 x 4 =,tie,smallProd,675,ACB,9.666666666666666,6,WAIS,1.423,27,5
8,1.597,1,4 x 2 =,largeFirst,smallProd,675,ACB,9.666666666666666,6,WAIS,1.423,27,1
42,5.6234,1,6 x 7 =,smallFirst,largeProd,675,ACB,9.666666666666666,6,WAIS,1.423,27,22
28,2.5797,1,7 x 4 =,largeFirst,largeProd,675,ACB,9.666666666666666,6,WAIS,1.423,27,17
54,1.9447,1,9 x 6 =,largeFirst,largeProd,675,ACB,9.666666666666666,6,WAIS,1.423,27,13
24,1.8807,1,4 x 6 =,smallFirst,smallProd,675,ACB,9.666666666666666,6,WAIS,1.423,27,12
45,2.1785,1,5 x 9 =,smallFirst,largeProd,675,ACB,9.666666666666666,6,WAIS,1.423,27,6
12,1.7502,1,3 x 4 =,smallFirst,smallProd,675,ACB,9.666666666666666,6,WAIS,1.423,27,10
32,3.0614,1,4 x 8 =,smallFirst,largeProd,675,ACB,9.666666666666666,6,WAIS,1.423,27,25
12,1.464,1,6 x 2 =,largeFirst,smallProd,675,ACB,9.666666666666666,6,WAIS,1.423,27,3
35,2.4149,1,5 x 7 =,smallFirst,largeProd,675,ACB,9.666666666666666,6,WAIS,1.423,27,7
10,1.6982,1,2 x 5 =,smallFirst,smallProd,675,ACB,9.666666666666666,6,WAIS,1.423,27,0
56,3.2608,0,7 x 9 =,smallFirst,largeProd,675,ACB,9.666666666666666,6,WAIS,1.423,27,17
6,2.6963,1,2 x 3 =,smallFirst,smallProd,675,ACB,9.666666666666666,6,WAIS,1.423,27,0
72,2.3605,1,9 x 8 =,largeFirst,largeProd,675,ACB,9.666666666666666,6,WAIS,1.423,27,19
30,2.0309,1,5 x 6 =,smallFirst,largeProd,675,ACB,9.666666666666666,6,WAIS,1.423,27,6
15,2.5795,1,5 x 3 =,largeFirst,smallProd,675,ACB,9.666666666666666,6,WAIS,1.423,27,2
20,1.9812,1,5 x 4 =,largeFirst,smallProd,675,ACB,9.666666666666666,6,WAIS,1.423,27,8
27,3.496,1,9 x 3 =,largeFirst,largeProd,675,ACB,9.666666666666666,6,WAIS,1.423,27,9
56,2.88,0,9 x 7 =,largeFirst,largeProd,675,ACB,9.666666666666666,6,WAIS,1.423,27,17
28,1.9645,1,4 x 7 =,smallFirst,largeProd,675,ACB,9.666666666666666,6,WAIS,1.423,27,17
8,1.8977,1,2 x 4 =,smallFirst,smallProd,675,ACB,9.666666666666666,6,WAIS,1.423,27,1
10,1.6646,1,5 x 2 =,largeFirst,smallProd,675,ACB,9.666666666666666,6,WAIS,1.423,27,0
72,3.2129,1,8 x 9 =,smallFirst,largeProd,675,ACB,9.666666666666666,6,WAIS,1.423,27,19
24,1.5979,1,6 x 4 =,largeFirst,smallProd,675,ACB,9.666666666666666,6,WAIS,1.423,27,12
18,1.5478,1,6 x 3 =,largeFirst,smallProd,675,ACB,9.666666666666666,6,WAIS,1.423,27,8
45,1.3649,1,9 x 5 =,largeFirst,largeProd,675,ACB,9.666666666666666,6,WAIS,1.423,27,6
42,3.6463,1,7 x 6 =,largeFirst,largeProd,675,ACB,9.666666666666666,6,WAIS,1.423,27,22
35,2.5803,1,7 x 5 =,largeFirst,largeProd,675,ACB,9.666666666666666,6,WAIS,1.423,27,7
48,1.7645,1,6 x 8 =,smallFirst,largeProd,675,ACB,9.666666666666666,6,WAIS,1.423,27,11
12,1.3981,1,2 x 6 =,smallFirst,smallProd,675,ACB,9.666666666666666,6,WAIS,1.423,27,3
9,1.3981,1,3 x 3 =,tie,smallProd,675,ACB,9.666666666666666,6,WAIS,1.423,27,0
30,1.6978,1,6 x 5 =,largeFirst,largeProd,675,ACB,9.666666666666666,6,WAIS,1.423,27,6
18,1.8643,1,2 x 9 =,smallFirst,smallProd,675,ACB,9.666666666666666,6,WAIS,1.423,27,7
56,2.6302,1,7 x 8 =,smallFirst,largeProd,675,ACB,9.666666666666666,6,WAIS,1.423,27,9
49,6.2433,1,7 x 7 =,tie,largeProd,675,ACB,9.666666666666666,6,WAIS,1.423,27,7
14,1.7811,1,7 x 2 =,largeFirst,smallProd,675,ACB,9.666666666666666,6,WAIS,1.423,27,4
12,1.5148,1,4 x 3 =,largeFirst,smallProd,675,ACB,9.666666666666666,6,WAIS,1.423,27,10
32,2.0974,1,8 x 4 =,largeFirst,largeProd,675,ACB,9.666666666666666,6,WAIS,1.423,27,25
15,1.764,1,3 x 5 =,smallFirst,smallProd,675,ACB,9.666666666666666,6,WAIS,1.423,27,2
40,1.9144,1,5 x 8 =,smallFirst,largeProd,675,ACB,9.666666666666666,6,WAIS,1.423,27,9
6,1.5145,1,3 x 2 =,largeFirst,smallProd,675,ACB,9.666666666666666,6,WAIS,1.423,27,0
28,2.7634,0,4 x 9 =,smallFirst,largeProd,675,ACB,9.666666666666666,6,WAIS,1.423,27,9
24,1.9306,1,3 x 8 =,smallFirst,smallProd,675,ACB,9.666666666666666,6,WAIS,1.423,27,13
20,1.8808,1,4 x 5 =,smallFirst,smallProd,675,ACB,9.666666666666666,6,WAIS,1.423,27,8
21,1.4644,1,3 x 7 =,smallFirst,smallProd,675,ACB,9.666666666666666,6,WAIS,1.423,27,13
16,1.503,1,8 x 2 =,largeFirst,smallProd,675,ACB,9.666666666666666,6,WAIS,1.423,27,7
54,2.0473,1,6 x 9 =,smallFirst,largeProd,675,ACB,9.666666666666666,6,WAIS,1.423,27,13
18,2.3437,1,9 x 2 =,largeFirst,smallProd,676,CBA,8.333333333333334,5,WAIS,1.3810500000000001,28,7
15,1.6822,1,5 x 3 =,largeFirst,smallProd,676,CBA,8.333333333333334,5,WAIS,1.3810500000000001,28,2
56,4.1986,1,8 x 7 =,largeFirst,largeProd,676,CBA,8.333333333333334,5,WAIS,1.3810500000000001,28,9
12,1.5324,1,3 x 4 =,smallFirst,smallProd,676,CBA,8.333333333333334,5,WAIS,1.3810500000000001,28,10
63,8.9631,1,7 x 9 =,smallFirst,largeProd,676,CBA,8.333333333333334,5,WAIS,1.3810500000000001,28,17
35,6.598,1,5 x 7 =,smallFirst,largeProd,676,CBA,8.333333333333334,5,WAIS,1.3810500000000001,28,7
36,2.149,1,9 x 4 =,largeFirst,largeProd,676,CBA,8.333333333333334,5,WAIS,1.3810500000000001,28,9
27,2.8657,1,3 x 9 =,smallFirst,largeProd,676,CBA,8.333333333333334,5,WAIS,1.3810500000000001,28,9
45,1.966,1,5 x 9 =,smallFirst,largeProd,676,CBA,8.333333333333334,5,WAIS,1.3810500000000001,28,6
24,2.3651,1,4 x 6 =,smallFirst,smallProd,676,CBA,8.333333333333334,5,WAIS,1.3810500000000001,28,12
6,2.0142,1,2 x 3 =,smallFirst,smallProd,676,CBA,8.333333333333334,5,WAIS,1.3810500000000001,28,0
40,1.6655,1,8 x 5 =,largeFirst,largeProd,676,CBA,8.333333333333334,5,WAIS,1.3810500000000001,28,9
42,2.4316,1,6 x 7 =,smallFirst,largeProd,676,CBA,8.333333333333334,5,WAIS,1.3810500000000001,28,22
16,1.8299,1,4 x 4 =,tie,smallProd,676,CBA,8.333333333333334,5,WAIS,1.3810500000000001,28,5
14,2.3312,1,2 x 7 =,smallFirst,smallProd,676,CBA,8.333333333333334,5,WAIS,1.3810500000000001,28,4
64,1.7809,1,8 x 8 =,tie,largeProd,676,CBA,8.333333333333334,5,WAIS,1.3810500000000001,28,19
20,1.4162,1,5 x 4 =,largeFirst,smallProd,676,CBA,8.333333333333334,5,WAIS,1.3810500000000001,28,8
24,1.6327,1,8 x 3 =,largeFirst,smallProd,676,CBA,8.333333333333334,5,WAIS,1.3810500000000001,28,13
4,4.0155,0,8 x 6 =,largeFirst,largeProd,676,CBA,8.333333333333334,5,WAIS,1.3810500000000001,28,11
18,1.833,1,3 x 6 =,smallFirst,smallProd,676,CBA,8.333333333333334,5,WAIS,1.3810500000000001,28,8
10,1.3308,1,2 x 5 =,smallFirst,smallProd,676,CBA,8.333333333333334,5,WAIS,1.3810500000000001,28,0
12,1.1334,1,6 x 2 =,largeFirst,smallProd,676,CBA,8.333333333333334,5,WAIS,1.3810500000000001,28,3
30,1.6322,1,5 x 6 =,smallFirst,largeProd,676,CBA,8.333333333333334,5,WAIS,1.3810500000000001,28,6
21,1.2372,1,7 x 3 =,largeFirst,smallProd,676,CBA,8.333333333333334,5,WAIS,1.3810500000000001,28,13
32,2.0811,1,4 x 8 =,smallFirst,largeProd,676,CBA,8.333333333333334,5,WAIS,1.3810500000000001,28,25
16,1.7533,1,2 x 8 =,smallFirst,smallProd,676,CBA,8.333333333333334,5,WAIS,1.3810500000000001,28,7
28,2.1319,1,7 x 4 =,largeFirst,largeProd,676,CBA,8.333333333333334,5,WAIS,1.3810500000000001,28,17
54,8.4473,1,9 x 6 =,largeFirst,largeProd,676,CBA,8.333333333333334,5,WAIS,1.3810500000000001,28,13
72,2.6799,1,9 x 8 =,largeFirst,largeProd,676,CBA,8.333333333333334,5,WAIS,1.3810500000000001,28,19
8,1.5647,1,4 x 2 =,largeFirst,smallProd,676,CBA,8.333333333333334,5,WAIS,1.3810500000000001,28,1
30,2.7659,1,6 x 5 =,largeFirst,largeProd,676,CBA,8.333333333333334,5,WAIS,1.3810500000000001,28,6
8,1.6981,1,2 x 4 =,smallFirst,smallProd,676,CBA,8.333333333333334,5,WAIS,1.3810500000000001,28,1
6,1.6145,1,3 x 2 =,largeFirst,smallProd,676,CBA,8.333333333333334,5,WAIS,1.3810500000000001,28,0
72,2.3639,1,8 x 9 =,smallFirst,largeProd,676,CBA,8.333333333333334,5,WAIS,1.3810500000000001,28,19
24,1.6912,1,6 x 4 =,largeFirst,smallProd,676,CBA,8.333333333333334,5,WAIS,1.3810500000000001,28,12
40,2.2995,1,5 x 8 =,smallFirst,largeProd,676,CBA,8.333333333333334,5,WAIS,1.3810500000000001,28,9
12,1.165,1,4 x 3 =,largeFirst,smallProd,676,CBA,8.333333333333334,5,WAIS,1.3810500000000001,28,10
32,1.6473,1,8 x 4 =,largeFirst,largeProd,676,CBA,8.333333333333334,5,WAIS,1.3810500000000001,28,25
48,2.4103,1,6 x 8 =,smallFirst,largeProd,676,CBA,8.333333333333334,5,WAIS,1.3810500000000001,28,11
42,1.732,1,7 x 6 =,largeFirst,largeProd,676,CBA,8.333333333333334,5,WAIS,1.3810500000000001,28,22
28,1.7309,1,4 x 7 =,smallFirst,largeProd,676,CBA,8.333333333333334,5,WAIS,1.3810500000000001,28,17
20,2.2816,1,4 x 5 =,smallFirst,smallProd,676,CBA,8.333333333333334,5,WAIS,1.3810500000000001,28,8
15,1.6654,1,3 x 5 =,smallFirst,smallProd,676,CBA,8.333333333333334,5,WAIS,1.3810500000000001,28,2
35,1.7645,1,7 x 5 =,largeFirst,largeProd,676,CBA,8.333333333333334,5,WAIS,1.3810500000000001,28,7
18,1.9661,1,2 x 9 =,smallFirst,smallProd,676,CBA,8.333333333333334,5,WAIS,1.3810500000000001,28,7
9,2.0321,1,3 x 3 =,tie,smallProd,676,CBA,8.333333333333334,5,WAIS,1.3810500000000001,28,0
49,2.7317,1,7 x 7 =,tie,largeProd,676,CBA,8.333333333333334,5,WAIS,1.3810500000000001,28,7
24,1.7503,1,3 x 8 =,smallFirst,smallProd,676,CBA,8.333333333333334,5,WAIS,1.3810500000000001,28,13
12,1.383,1,2 x 6 =,smallFirst,smallProd,676,CBA,8.333333333333334,5,WAIS,1.3810500000000001,28,3
28,4.2811,0,4 x 9 =,smallFirst,largeProd,676,CBA,8.333333333333334,5,WAIS,1.3810500000000001,28,9
63,3.2878,1,9 x 7 =,largeFirst,largeProd,676,CBA,8.333333333333334,5,WAIS,1.3810500000000001,28,17
10,1.3489,1,5 x 2 =,largeFirst,smallProd,676,CBA,8.333333333333334,5,WAIS,1.3810500000000001,28,0
28,1.9823,0,9 x 3 =,largeFirst,largeProd,676,CBA,8.333333333333334,5,WAIS,1.3810500000000001,28,9
45,6.4305,1,9 x 5 =,largeFirst,largeProd,676,CBA,8.333333333333334,5,WAIS,1.3810500000000001,28,6
14,1.6506,1,7 x 2 =,largeFirst,smallProd,676,CBA,8.333333333333334,5,WAIS,1.3810500000000001,28,4
21,2.0336,1,3 x 7 =,smallFirst,smallProd,676,CBA,8.333333333333334,5,WAIS,1.3810500000000001,28,13
56,2.1309,1,7 x 8 =,smallFirst,largeProd,676,CBA,8.333333333333334,5,WAIS,1.3810500000000001,28,9
54,2.5828,1,6 x 9 =,smallFirst,largeProd,676,CBA,8.333333333333334,5,WAIS,1.3810500000000001,28,13
16,1.9267,1,8 x 2 =,largeFirst,smallProd,676,CBA,8.333333333333334,5,WAIS,1.3810500000000001,28,7
18,2.2323,1,6 x 3 =,largeFirst,smallProd,676,CBA,8.333333333333334,5,WAIS,1.3810500000000001,28,8
24,0.9494,0,8 x 4 =,largeFirst,largeProd,677,ACB,10.666666666666666,9,WAIS,1.10735,28,25
15,1.0493,1,3 x 5 =,smallFirst,smallProd,677,ACB,10.666666666666666,9,WAIS,1.10735,28,2
8,0.9493,1,2 x 4 =,smallFirst,smallProd,677,ACB,10.666666666666666,9,WAIS,1.10735,28,1
6,1.0325,1,3 x 2 =,largeFirst,smallProd,677,ACB,10.666666666666666,9,WAIS,1.10735,28,0
40,1.1158,1,5 x 8 =,smallFirst,largeProd,677,ACB,10.666666666666666,9,WAIS,1.10735,28,9
63,1.2655,1,9 x 7 =,largeFirst,largeProd,677,ACB,10.666666666666666,9,WAIS,1.10735,28,17
12,0.7663,1,4 x 3 =,largeFirst,smallProd,677,ACB,10.666666666666666,9,WAIS,1.10735,28,10
48,1.1657,1,6 x 8 =,smallFirst,largeProd,677,ACB,10.666666666666666,9,WAIS,1.10735,28,11
45,0.9825,1,9 x 5 =,largeFirst,largeProd,677,ACB,10.666666666666666,9,WAIS,1.10735,28,6
27,1.1825,1,9 x 3 =,largeFirst,largeProd,677,ACB,10.666666666666666,9,WAIS,1.10735,28,9
18,1.0328,1,2 x 9 =,smallFirst,smallProd,677,ACB,10.666666666666666,9,WAIS,1.10735,28,7
28,1.0493,1,4 x 7 =,smallFirst,largeProd,677,ACB,10.666666666666666,9,WAIS,1.10735,28,17
30,1.1157,1,6 x 5 =,largeFirst,largeProd,677,ACB,10.666666666666666,9,WAIS,1.10735,28,6
18,1.0992,1,6 x 3 =,largeFirst,smallProd,677,ACB,10.666666666666666,9,WAIS,1.10735,28,8
49,1.4493,1,7 x 7 =,tie,largeProd,677,ACB,10.666666666666666,9,WAIS,1.10735,28,7
35,1.0329,1,7 x 5 =,largeFirst,largeProd,677,ACB,10.666666666666666,9,WAIS,1.10735,28,7
12,1.1659,1,2 x 6 =,smallFirst,smallProd,677,ACB,10.666666666666666,9,WAIS,1.10735,28,3
24,1.0325,1,6 x 4 =,largeFirst,smallProd,677,ACB,10.666666666666666,9,WAIS,1.10735,28,12
10,0.9826,1,5 x 2 =,largeFirst,smallProd,677,ACB,10.666666666666666,9,WAIS,1.10735,28,0
54,4.0481,1,6 x 9 =,smallFirst,largeProd,677,ACB,10.666666666666666,9,WAIS,1.10735,28,13
24,0.8826,1,3 x 8 =,smallFirst,smallProd,677,ACB,10.666666666666666,9,WAIS,1.10735,28,13
16,0.999,1,8 x 2 =,largeFirst,smallProd,677,ACB,10.666666666666666,9,WAIS,1.10735,28,7
72,1.3327,1,8 x 9 =,smallFirst,largeProd,677,ACB,10.666666666666666,9,WAIS,1.10735,28,19
36,1.1686,1,4 x 9 =,smallFirst,largeProd,677,ACB,10.666666666666666,9,WAIS,1.10735,28,9
20,1.1329,1,4 x 5 =,smallFirst,smallProd,677,ACB,10.666666666666666,9,WAIS,1.10735,28,8
14,1.149,1,7 x 2 =,largeFirst,smallProd,677,ACB,10.666666666666666,9,WAIS,1.10735,28,4
9,1.0991,1,3 x 3 =,tie,smallProd,677,ACB,10.666666666666666,9,WAIS,1.10735,28,0
21,0.8827,1,3 x 7 =,smallFirst,smallProd,677,ACB,10.666666666666666,9,WAIS,1.10735,28,13
56,1.2657,1,7 x 8 =,smallFirst,largeProd,677,ACB,10.666666666666666,9,WAIS,1.10735,28,9
42,1.0828,1,7 x 6 =,largeFirst,largeProd,677,ACB,10.666666666666666,9,WAIS,1.10735,28,22
18,1.199,1,3 x 6 =,smallFirst,smallProd,677,ACB,10.666666666666666,9,WAIS,1.10735,28,8
28,1.0487,1,7 x 4 =,largeFirst,largeProd,677,ACB,10.666666666666666,9,WAIS,1.10735,28,17
10,2.1155,1,2 x 5 =,smallFirst,smallProd,677,ACB,10.666666666666666,9,WAIS,1.10735,28,0
12,0.7658,1,3 x 4 =,smallFirst,smallProd,677,ACB,10.666666666666666,9,WAIS,1.10735,28,10
54,1.1323,1,9 x 6 =,largeFirst,largeProd,677,ACB,10.666666666666666,9,WAIS,1.10735,28,13
18,1.016,1,9 x 2 =,largeFirst,smallProd,677,ACB,10.666666666666666,9,WAIS,1.10735,28,7
56,1.2491,1,8 x 7 =,largeFirst,largeProd,677,ACB,10.666666666666666,9,WAIS,1.10735,28,9
24,0.9656,1,8 x 3 =,largeFirst,smallProd,677,ACB,10.666666666666666,9,WAIS,1.10735,28,13
14,1.1165,1,2 x 7 =,smallFirst,smallProd,677,ACB,10.666666666666666,9,WAIS,1.10735,28,4
48,1.2155,1,8 x 6 =,largeFirst,largeProd,677,ACB,10.666666666666666,9,WAIS,1.10735,28,11
15,0.9159,1,5 x 3 =,largeFirst,smallProd,677,ACB,10.666666666666666,9,WAIS,1.10735,28,2
21,0.7827,1,7 x 3 =,largeFirst,smallProd,677,ACB,10.666666666666666,9,WAIS,1.10735,28,13
16,1.0518,1,4 x 4 =,tie,smallProd,677,ACB,10.666666666666666,9,WAIS,1.10735,28,5
30,1.0825,1,5 x 6 =,smallFirst,largeProd,677,ACB,10.666666666666666,9,WAIS,1.10735,28,6
24,0.9325,1,4 x 6 =,smallFirst,smallProd,677,ACB,10.666666666666666,9,WAIS,1.10735,28,12
6,1.066,1,2 x 3 =,smallFirst,smallProd,677,ACB,10.666666666666666,9,WAIS,1.10735,28,0
36,1.832,1,9 x 4 =,largeFirst,largeProd,677,ACB,10.666666666666666,9,WAIS,1.10735,28,9
27,1.0658,1,3 x 9 =,smallFirst,largeProd,677,ACB,10.666666666666666,9,WAIS,1.10735,28,9
20,1.0991,1,5 x 4 =,largeFirst,smallProd,677,ACB,10.666666666666666,9,WAIS,1.10735,28,8
24,2.0986,0,4 x 8 =,smallFirst,largeProd,677,ACB,10.666666666666666,9,WAIS,1.10735,28,25
40,1.4328,1,8 x 5 =,largeFirst,largeProd,677,ACB,10.666666666666666,9,WAIS,1.10735,28,9
42,1.0658,1,6 x 7 =,smallFirst,largeProd,677,ACB,10.666666666666666,9,WAIS,1.10735,28,22
63,1.2997,1,7 x 9 =,smallFirst,largeProd,677,ACB,10.666666666666666,9,WAIS,1.10735,28,17
72,1.5324,1,9 x 8 =,largeFirst,largeProd,677,ACB,10.666666666666666,9,WAIS,1.10735,28,19
16,1.1657,1,2 x 8 =,smallFirst,smallProd,677,ACB,10.666666666666666,9,WAIS,1.10735,28,7
12,0.7158,1,6 x 2 =,largeFirst,smallProd,677,ACB,10.666666666666666,9,WAIS,1.10735,28,3
45,1.0822,1,5 x 9 =,smallFirst,largeProd,677,ACB,10.666666666666666,9,WAIS,1.10735,28,6
8,1.0991,1,4 x 2 =,largeFirst,smallProd,677,ACB,10.666666666666666,9,WAIS,1.10735,28,1
64,1.3491,1,8 x 8 =,tie,largeProd,677,ACB,10.666666666666666,9,WAIS,1.10735,28,19
35,1.0161,1,5 x 7 =,smallFirst,largeProd,677,ACB,10.666666666666666,9,WAIS,1.10735,28,7
15,1.349,1,3 x 5 =,smallFirst,smallProd,680,BCA,7,7,WAIS,1.133,28,2
8,1.665,1,2 x 4 =,smallFirst,smallProd,680,BCA,7,7,WAIS,1.133,28,1
48,2.716,1,6 x 8 =,smallFirst,largeProd,680,BCA,7,7,WAIS,1.133,28,11
32,2.116,1,8 x 4 =,largeFirst,largeProd,680,BCA,7,7,WAIS,1.133,28,25
14,1.284,1,7 x 2 =,largeFirst,smallProd,680,BCA,7,7,WAIS,1.133,28,4
28,4.216,1,4 x 7 =,smallFirst,largeProd,680,BCA,7,7,WAIS,1.133,28,17
35,1.701,1,7 x 5 =,largeFirst,largeProd,680,BCA,7,7,WAIS,1.133,28,7
42,2.067,1,7 x 6 =,largeFirst,largeProd,680,BCA,7,7,WAIS,1.133,28,22
63,2.916,1,9 x 7 =,largeFirst,largeProd,680,BCA,7,7,WAIS,1.133,28,17
56,2.851,1,7 x 8 =,smallFirst,largeProd,680,BCA,7,7,WAIS,1.133,28,9
18,1.585,1,2 x 9 =,smallFirst,smallProd,680,BCA,7,7,WAIS,1.133,28,7
18,1.557,1,6 x 3 =,largeFirst,smallProd,680,BCA,7,7,WAIS,1.133,28,8
16,1.383,1,8 x 2 =,largeFirst,smallProd,680,BCA,7,7,WAIS,1.133,28,7
20,2.217,1,4 x 5 =,smallFirst,smallProd,680,BCA,7,7,WAIS,1.133,28,8
45,1.916,1,9 x 5 =,largeFirst,largeProd,680,BCA,7,7,WAIS,1.133,28,6
40,3.083,1,5 x 8 =,smallFirst,largeProd,680,BCA,7,7,WAIS,1.133,28,9
12,1.584,1,4 x 3 =,largeFirst,smallProd,680,BCA,7,7,WAIS,1.133,28,10
10,1.417,1,5 x 2 =,largeFirst,smallProd,680,BCA,7,7,WAIS,1.133,28,0
6,1.649,1,3 x 2 =,largeFirst,smallProd,680,BCA,7,7,WAIS,1.133,28,0
54,3.283,1,6 x 9 =,smallFirst,largeProd,680,BCA,7,7,WAIS,1.133,28,13
12,1.85,1,2 x 6 =,smallFirst,smallProd,680,BCA,7,7,WAIS,1.133,28,3
49,2.035,1,7 x 7 =,tie,largeProd,680,BCA,7,7,WAIS,1.133,28,7
72,3.083,1,8 x 9 =,smallFirst,largeProd,680,BCA,7,7,WAIS,1.133,28,19
18,1.917,0,9 x 3 =,largeFirst,largeProd,680,BCA,7,7,WAIS,1.133,28,9
21,1.784,1,3 x 7 =,smallFirst,smallProd,680,BCA,7,7,WAIS,1.133,28,13
9,1.333,1,3 x 3 =,tie,smallProd,680,BCA,7,7,WAIS,1.133,28,0
24,2.135,1,6 x 4 =,largeFirst,smallProd,680,BCA,7,7,WAIS,1.133,28,12
36,2.916,1,4 x 9 =,smallFirst,largeProd,680,BCA,7,7,WAIS,1.133,28,9
30,1.717,1,6 x 5 =,largeFirst,largeProd,680,BCA,7,7,WAIS,1.133,28,6
24,1.801,1,3 x 8 =,smallFirst,smallProd,680,BCA,7,7,WAIS,1.133,28,13
64,2.617,1,8 x 8 =,tie,largeProd,680,BCA,7,7,WAIS,1.133,28,19
12,1.667,1,3 x 4 =,smallFirst,smallProd,680,BCA,7,7,WAIS,1.133,28,10
21,1.432,1,7 x 3 =,largeFirst,smallProd,680,BCA,7,7,WAIS,1.133,28,13
18,1.333,1,9 x 2 =,largeFirst,smallProd,680,BCA,7,7,WAIS,1.133,28,7
54,2.251,1,9 x 6 =,largeFirst,largeProd,680,BCA,7,7,WAIS,1.133,28,13
12,1.083,1,6 x 2 =,largeFirst,smallProd,680,BCA,7,7,WAIS,1.133,28,3
56,2.349,1,8 x 7 =,largeFirst,largeProd,680,BCA,7,7,WAIS,1.133,28,9
2,1.516,0,5 x 4 =,largeFirst,smallProd,680,BCA,7,7,WAIS,1.133,28,8
32,2.451,1,4 x 8 =,smallFirst,largeProd,680,BCA,7,7,WAIS,1.133,28,25
16,1.516,1,2 x 8 =,smallFirst,smallProd,680,BCA,7,7,WAIS,1.133,28,7
6,1.568,1,2 x 3 =,smallFirst,smallProd,680,BCA,7,7,WAIS,1.133,28,0
45,2.017,1,5 x 9 =,smallFirst,largeProd,680,BCA,7,7,WAIS,1.133,28,6
24,2.816,1,4 x 6 =,smallFirst,smallProd,680,BCA,7,7,WAIS,1.133,28,12
30,1.918,1,5 x 6 =,smallFirst,largeProd,680,BCA,7,7,WAIS,1.133,28,6
40,2.183,1,8 x 5 =,largeFirst,largeProd,680,BCA,7,7,WAIS,1.133,28,9
28,2.55,1,7 x 4 =,largeFirst,largeProd,680,BCA,7,7,WAIS,1.133,28,17
14,1.217,1,2 x 7 =,smallFirst,smallProd,680,BCA,7,7,WAIS,1.133,28,4
16,1.351,1,4 x 4 =,tie,smallProd,680,BCA,7,7,WAIS,1.133,28,5
42,2.384,1,6 x 7 =,smallFirst,largeProd,680,BCA,7,7,WAIS,1.133,28,22
48,3.034,1,8 x 6 =,largeFirst,largeProd,680,BCA,7,7,WAIS,1.133,28,11
72,2.549,1,9 x 8 =,largeFirst,largeProd,680,BCA,7,7,WAIS,1.133,28,19
24,2,1,8 x 3 =,largeFirst,smallProd,680,BCA,7,7,WAIS,1.133,28,13
6,1.9,0,4 x 2 =,largeFirst,smallProd,680,BCA,7,7,WAIS,1.133,28,1
27,3.5,1,3 x 9 =,smallFirst,largeProd,680,BCA,7,7,WAIS,1.133,28,9
15,1.282,1,5 x 3 =,largeFirst,smallProd,680,BCA,7,7,WAIS,1.133,28,2
63,3.232,1,7 x 9 =,smallFirst,largeProd,680,BCA,7,7,WAIS,1.133,28,17
36,2.834,1,9 x 4 =,largeFirst,largeProd,680,BCA,7,7,WAIS,1.133,28,9
10,1.616,1,2 x 5 =,smallFirst,smallProd,680,BCA,7,7,WAIS,1.133,28,0
18,2.966,1,3 x 6 =,smallFirst,smallProd,680,BCA,7,7,WAIS,1.133,28,8
35,2.916,1,5 x 7 =,smallFirst,largeProd,680,BCA,7,7,WAIS,1.133,28,7
18,1.6153,1,6 x 3 =,largeFirst,smallProd,681,ACB,7.333333333333333,7,WAIS,1.19855,28,8
21,1.2476,1,3 x 7 =,smallFirst,smallProd,681,ACB,7.333333333333333,7,WAIS,1.19855,28,13
56,1.4651,1,7 x 8 =,smallFirst,largeProd,681,ACB,7.333333333333333,7,WAIS,1.19855,28,9
42,1.2811,1,7 x 6 =,largeFirst,largeProd,681,ACB,7.333333333333333,7,WAIS,1.19855,28,22
32,2.5134,1,8 x 4 =,largeFirst,largeProd,681,ACB,7.333333333333333,7,WAIS,1.19855,28,25
48,1.8987,1,6 x 8 =,smallFirst,largeProd,681,ACB,7.333333333333333,7,WAIS,1.19855,28,11
49,1.548,1,7 x 7 =,tie,largeProd,681,ACB,7.333333333333333,7,WAIS,1.19855,28,7
15,1.2825,1,3 x 5 =,smallFirst,smallProd,681,ACB,7.333333333333333,7,WAIS,1.19855,28,2
28,1.815,1,4 x 7 =,smallFirst,largeProd,681,ACB,7.333333333333333,7,WAIS,1.19855,28,17
40,1.6316,1,5 x 8 =,smallFirst,largeProd,681,ACB,7.333333333333333,7,WAIS,1.19855,28,9
2,1.5983,0,4 x 5 =,smallFirst,smallProd,681,ACB,7.333333333333333,7,WAIS,1.19855,28,8
6,7.8758,1,3 x 2 =,largeFirst,smallProd,681,ACB,7.333333333333333,7,WAIS,1.19855,28,0
56,1.748,0,9 x 7 =,largeFirst,largeProd,681,ACB,7.333333333333333,7,WAIS,1.19855,28,17
12,1.1151,1,4 x 3 =,largeFirst,smallProd,681,ACB,7.333333333333333,7,WAIS,1.19855,28,10
8,1.6316,1,2 x 4 =,smallFirst,smallProd,681,ACB,7.333333333333333,7,WAIS,1.19855,28,1
14,1.2152,1,7 x 2 =,largeFirst,smallProd,681,ACB,7.333333333333333,7,WAIS,1.19855,28,4
27,1.8986,1,9 x 3 =,largeFirst,largeProd,681,ACB,7.333333333333333,7,WAIS,1.19855,28,9
10,1.4814,1,5 x 2 =,largeFirst,smallProd,681,ACB,7.333333333333333,7,WAIS,1.19855,28,0
49,1.948,0,4 x 9 =,smallFirst,largeProd,681,ACB,7.333333333333333,7,WAIS,1.19855,28,9
30,2.6768,1,6 x 5 =,largeFirst,largeProd,681,ACB,7.333333333333333,7,WAIS,1.19855,28,6
24,1.2331,1,3 x 8 =,smallFirst,smallProd,681,ACB,7.333333333333333,7,WAIS,1.19855,28,13
24,1.1978,1,6 x 4 =,largeFirst,smallProd,681,ACB,7.333333333333333,7,WAIS,1.19855,28,12
16,1.5812,1,8 x 2 =,largeFirst,smallProd,681,ACB,7.333333333333333,7,WAIS,1.19855,28,7
35,1.6644,1,7 x 5 =,largeFirst,largeProd,681,ACB,7.333333333333333,7,WAIS,1.19855,28,7
72,3.0307,1,8 x 9 =,smallFirst,largeProd,681,ACB,7.333333333333333,7,WAIS,1.19855,28,19
45,1.3651,1,9 x 5 =,largeFirst,largeProd,681,ACB,7.333333333333333,7,WAIS,1.19855,28,6
9,1.3651,1,3 x 3 =,tie,smallProd,681,ACB,7.333333333333333,7,WAIS,1.19855,28,0
12,1.17,1,2 x 6 =,smallFirst,smallProd,681,ACB,7.333333333333333,7,WAIS,1.19855,28,3
54,3.579,1,6 x 9 =,smallFirst,largeProd,681,ACB,7.333333333333333,7,WAIS,1.19855,28,13
18,2.4476,1,2 x 9 =,smallFirst,smallProd,681,ACB,7.333333333333333,7,WAIS,1.19855,28,7
27,2.5976,1,3 x 9 =,smallFirst,largeProd,681,ACB,7.333333333333333,7,WAIS,1.19855,28,9
14,1.2484,1,2 x 7 =,smallFirst,smallProd,681,ACB,7.333333333333333,7,WAIS,1.19855,28,4
48,1.7311,1,8 x 6 =,largeFirst,largeProd,681,ACB,7.333333333333333,7,WAIS,1.19855,28,11
6,1.4159,1,2 x 3 =,smallFirst,smallProd,681,ACB,7.333333333333333,7,WAIS,1.19855,28,0
28,1.7494,1,7 x 4 =,largeFirst,largeProd,681,ACB,7.333333333333333,7,WAIS,1.19855,28,17
30,1.4697,1,5 x 6 =,smallFirst,largeProd,681,ACB,7.333333333333333,7,WAIS,1.19855,28,6
56,1.853,1,8 x 7 =,largeFirst,largeProd,681,ACB,7.333333333333333,7,WAIS,1.19855,28,9
36,2.7137,1,9 x 4 =,largeFirst,largeProd,681,ACB,7.333333333333333,7,WAIS,1.19855,28,9
15,1.3318,1,5 x 3 =,largeFirst,smallProd,681,ACB,7.333333333333333,7,WAIS,1.19855,28,2
72,2.0488,1,9 x 8 =,largeFirst,largeProd,681,ACB,7.333333333333333,7,WAIS,1.19855,28,19
20,1.5812,1,5 x 4 =,largeFirst,smallProd,681,ACB,7.333333333333333,7,WAIS,1.19855,28,8
12,1.0152,1,6 x 2 =,largeFirst,smallProd,681,ACB,7.333333333333333,7,WAIS,1.19855,28,3
40,1.6313,1,8 x 5 =,largeFirst,largeProd,681,ACB,7.333333333333333,7,WAIS,1.19855,28,9
24,1.2695,1,4 x 6 =,smallFirst,smallProd,681,ACB,7.333333333333333,7,WAIS,1.19855,28,12
64,3.3289,1,8 x 8 =,tie,largeProd,681,ACB,7.333333333333333,7,WAIS,1.19855,28,19
54,1.5481,1,9 x 6 =,largeFirst,largeProd,681,ACB,7.333333333333333,7,WAIS,1.19855,28,13
18,1.6149,1,9 x 2 =,largeFirst,smallProd,681,ACB,7.333333333333333,7,WAIS,1.19855,28,7
8,1.4819,1,4 x 2 =,largeFirst,smallProd,681,ACB,7.333333333333333,7,WAIS,1.19855,28,1
16,1.465,1,2 x 8 =,smallFirst,smallProd,681,ACB,7.333333333333333,7,WAIS,1.19855,28,7
16,3.4479,0,3 x 6 =,smallFirst,smallProd,681,ACB,7.333333333333333,7,WAIS,1.19855,28,8
16,2.3637,1,4 x 4 =,tie,smallProd,681,ACB,7.333333333333333,7,WAIS,1.19855,28,5
10,2.1109,1,2 x 5 =,smallFirst,smallProd,681,ACB,7.333333333333333,7,WAIS,1.19855,28,0
35,1.6645,1,5 x 7 =,smallFirst,largeProd,681,ACB,7.333333333333333,7,WAIS,1.19855,28,7
21,1.0991,1,7 x 3 =,largeFirst,smallProd,681,ACB,7.333333333333333,7,WAIS,1.19855,28,13
42,1.3983,1,6 x 7 =,smallFirst,largeProd,681,ACB,7.333333333333333,7,WAIS,1.19855,28,22
45,1.3335,1,5 x 9 =,smallFirst,largeProd,681,ACB,7.333333333333333,7,WAIS,1.19855,28,6
24,1.3646,1,8 x 3 =,largeFirst,smallProd,681,ACB,7.333333333333333,7,WAIS,1.19855,28,13
63,4.013,1,7 x 9 =,smallFirst,largeProd,681,ACB,7.333333333333333,7,WAIS,1.19855,28,17
12,1.0652,1,3 x 4 =,smallFirst,smallProd,681,ACB,7.333333333333333,7,WAIS,1.19855,28,10
32,2.2466,1,4 x 8 =,smallFirst,largeProd,681,ACB,7.333333333333333,7,WAIS,1.19855,28,25
56,2.8151,1,7 x 8 =,smallFirst,largeProd,682,ACB,7.666666666666667,9,WAIS,1.3491,27,9
28,2.9818,1,4 x 7 =,smallFirst,largeProd,682,ACB,7.666666666666667,9,WAIS,1.3491,27,17
18,1.4825,1,2 x 9 =,smallFirst,smallProd,682,ACB,7.666666666666667,9,WAIS,1.3491,27,7
8,2.2486,1,2 x 4 =,smallFirst,smallProd,682,ACB,7.666666666666667,9,WAIS,1.3491,27,1
42,2.2989,1,7 x 6 =,largeFirst,largeProd,682,ACB,7.666666666666667,9,WAIS,1.3491,27,22
36,2.5652,1,4 x 9 =,smallFirst,largeProd,682,ACB,7.666666666666667,9,WAIS,1.3491,27,9
24,3.7317,1,3 x 8 =,smallFirst,smallProd,682,ACB,7.666666666666667,9,WAIS,1.3491,27,13
32,2.2654,1,8 x 4 =,largeFirst,largeProd,682,ACB,7.666666666666667,9,WAIS,1.3491,27,25
35,2.9489,1,7 x 5 =,largeFirst,largeProd,682,ACB,7.666666666666667,9,WAIS,1.3491,27,7
24,1.6321,1,6 x 4 =,largeFirst,smallProd,682,ACB,7.666666666666667,9,WAIS,1.3491,27,12
72,12.4453,1,8 x 9 =,smallFirst,largeProd,682,ACB,7.666666666666667,9,WAIS,1.3491,27,19
49,1.6493,1,7 x 7 =,tie,largeProd,682,ACB,7.666666666666667,9,WAIS,1.3491,27,7
27,2.3652,1,9 x 3 =,largeFirst,largeProd,682,ACB,7.666666666666667,9,WAIS,1.3491,27,9
9,1.4988,1,3 x 3 =,tie,smallProd,682,ACB,7.666666666666667,9,WAIS,1.3491,27,0
18,2.9151,1,6 x 3 =,largeFirst,smallProd,682,ACB,7.666666666666667,9,WAIS,1.3491,27,8
16,1.9324,1,8 x 2 =,largeFirst,smallProd,682,ACB,7.666666666666667,9,WAIS,1.3491,27,7
20,1.8827,1,4 x 5 =,smallFirst,smallProd,682,ACB,7.666666666666667,9,WAIS,1.3491,27,8
54,4.1314,1,6 x 9 =,smallFirst,largeProd,682,ACB,7.666666666666667,9,WAIS,1.3491,27,13
63,6.064,1,9 x 7 =,largeFirst,largeProd,682,ACB,7.666666666666667,9,WAIS,1.3491,27,17
10,1.4326,1,5 x 2 =,largeFirst,smallProd,682,ACB,7.666666666666667,9,WAIS,1.3491,27,0
21,1.4491,1,3 x 7 =,smallFirst,smallProd,682,ACB,7.666666666666667,9,WAIS,1.3491,27,13
40,1.7656,1,5 x 8 =,smallFirst,largeProd,682,ACB,7.666666666666667,9,WAIS,1.3491,27,9
24,1.7822,0,7 x 2 =,largeFirst,smallProd,682,ACB,7.666666666666667,9,WAIS,1.3491,27,4
30,2.6818,1,6 x 5 =,largeFirst,largeProd,682,ACB,7.666666666666667,9,WAIS,1.3491,27,6
45,1.9323,1,9 x 5 =,largeFirst,largeProd,682,ACB,7.666666666666667,9,WAIS,1.3491,27,6
12,1.4655,1,4 x 3 =,largeFirst,smallProd,682,ACB,7.666666666666667,9,WAIS,1.3491,27,10
48,8.7635,1,6 x 8 =,smallFirst,largeProd,682,ACB,7.666666666666667,9,WAIS,1.3491,27,11
15,1.4827,1,3 x 5 =,smallFirst,smallProd,682,ACB,7.666666666666667,9,WAIS,1.3491,27,2
6,2.2654,1,3 x 2 =,largeFirst,smallProd,682,ACB,7.666666666666667,9,WAIS,1.3491,27,0
18,1.7491,0,2 x 6 =,smallFirst,smallProd,682,ACB,7.666666666666667,9,WAIS,1.3491,27,3
6,1.466,1,2 x 3 =,smallFirst,smallProd,682,ACB,7.666666666666667,9,WAIS,1.3491,27,0
32,3.6815,1,4 x 8 =,smallFirst,largeProd,682,ACB,7.666666666666667,9,WAIS,1.3491,27,25
10,1.2327,1,2 x 5 =,smallFirst,smallProd,682,ACB,7.666666666666667,9,WAIS,1.3491,27,0
35,2.1492,1,5 x 7 =,smallFirst,largeProd,682,ACB,7.666666666666667,9,WAIS,1.3491,27,7
36,3.0817,1,9 x 4 =,largeFirst,largeProd,682,ACB,7.666666666666667,9,WAIS,1.3491,27,9
18,1.5659,1,9 x 2 =,largeFirst,smallProd,682,ACB,7.666666666666667,9,WAIS,1.3491,27,7
40,1.6823,1,8 x 5 =,largeFirst,largeProd,682,ACB,7.666666666666667,9,WAIS,1.3491,27,9
42,2.6987,1,6 x 7 =,smallFirst,largeProd,682,ACB,7.666666666666667,9,WAIS,1.3491,27,22
28,3.0486,1,7 x 4 =,largeFirst,largeProd,682,ACB,7.666666666666667,9,WAIS,1.3491,27,17
56,9.0135,1,8 x 7 =,largeFirst,largeProd,682,ACB,7.666666666666667,9,WAIS,1.3491,27,9
16,2.2155,1,2 x 8 =,smallFirst,smallProd,682,ACB,7.666666666666667,9,WAIS,1.3491,27,7
14,1.5829,1,2 x 7 =,smallFirst,smallProd,682,ACB,7.666666666666667,9,WAIS,1.3491,27,4
8,2.3819,1,4 x 2 =,largeFirst,smallProd,682,ACB,7.666666666666667,9,WAIS,1.3491,27,1
30,2.3989,1,5 x 6 =,smallFirst,largeProd,682,ACB,7.666666666666667,9,WAIS,1.3491,27,6
72,4.8651,1,9 x 8 =,largeFirst,largeProd,682,ACB,7.666666666666667,9,WAIS,1.3491,27,19
21,3.3152,1,7 x 3 =,largeFirst,smallProd,682,ACB,7.666666666666667,9,WAIS,1.3491,27,13
24,1.5324,1,4 x 6 =,smallFirst,smallProd,682,ACB,7.666666666666667,9,WAIS,1.3491,27,12
20,1.7822,1,5 x 4 =,largeFirst,smallProd,682,ACB,7.666666666666667,9,WAIS,1.3491,27,8
8,1.5993,0,4 x 4 =,tie,smallProd,682,ACB,7.666666666666667,9,WAIS,1.3491,27,5
63,3.8982,1,7 x 9 =,smallFirst,largeProd,682,ACB,7.666666666666667,9,WAIS,1.3491,27,17
48,2.2488,1,8 x 6 =,largeFirst,largeProd,682,ACB,7.666666666666667,9,WAIS,1.3491,27,11
15,1.3158,1,5 x 3 =,largeFirst,smallProd,682,ACB,7.666666666666667,9,WAIS,1.3491,27,2
12,2.1988,1,6 x 2 =,largeFirst,smallProd,682,ACB,7.666666666666667,9,WAIS,1.3491,27,3
12,1.4663,1,3 x 4 =,smallFirst,smallProd,682,ACB,7.666666666666667,9,WAIS,1.3491,27,10
64,15.1777,1,8 x 8 =,tie,largeProd,682,ACB,7.666666666666667,9,WAIS,1.3491,27,19
24,2.7487,1,8 x 3 =,largeFirst,smallProd,682,ACB,7.666666666666667,9,WAIS,1.3491,27,13
54,3.8487,1,9 x 6 =,largeFirst,largeProd,682,ACB,7.666666666666667,9,WAIS,1.3491,27,13
18,1.6823,1,3 x 6 =,smallFirst,smallProd,682,ACB,7.666666666666667,9,WAIS,1.3491,27,8
27,2.1656,1,3 x 9 =,smallFirst,largeProd,682,ACB,7.666666666666667,9,WAIS,1.3491,27,9
45,5.4809,1,5 x 9 =,smallFirst,largeProd,682,ACB,7.666666666666667,9,WAIS,1.3491,27,6
16,1.2326,1,8 x 2 =,largeFirst,smallProd,683,CBA,9.333333333333334,8,WAIS,1.0660500000000002,28,7
15,1.0994,1,3 x 5 =,smallFirst,smallProd,683,CBA,9.333333333333334,8,WAIS,1.0660500000000002,28,2
28,1.3493,1,4 x 7 =,smallFirst,largeProd,683,CBA,9.333333333333334,8,WAIS,1.0660500000000002,28,17
35,1.6824,1,7 x 5 =,largeFirst,largeProd,683,CBA,9.333333333333334,8,WAIS,1.0660500000000002,28,7
72,1.4993,1,8 x 9 =,smallFirst,largeProd,683,CBA,9.333333333333334,8,WAIS,1.0660500000000002,28,19
49,1.4493,1,7 x 7 =,tie,largeProd,683,CBA,9.333333333333334,8,WAIS,1.0660500000000002,28,7
63,1.9156,1,9 x 7 =,largeFirst,largeProd,683,CBA,9.333333333333334,8,WAIS,1.0660500000000002,28,17
27,1.4492,1,9 x 3 =,largeFirst,largeProd,683,CBA,9.333333333333334,8,WAIS,1.0660500000000002,28,9
24,1.1827,1,6 x 4 =,largeFirst,smallProd,683,CBA,9.333333333333334,8,WAIS,1.0660500000000002,28,12
30,2.1989,1,6 x 5 =,largeFirst,largeProd,683,CBA,9.333333333333334,8,WAIS,1.0660500000000002,28,6
54,1.6159,1,6 x 9 =,smallFirst,largeProd,683,CBA,9.333333333333334,8,WAIS,1.0660500000000002,28,13
45,1.0661,1,9 x 5 =,largeFirst,largeProd,683,CBA,9.333333333333334,8,WAIS,1.0660500000000002,28,6
40,1.3326,1,5 x 8 =,smallFirst,largeProd,683,CBA,9.333333333333334,8,WAIS,1.0660500000000002,28,9
20,1.4992,1,4 x 5 =,smallFirst,smallProd,683,CBA,9.333333333333334,8,WAIS,1.0660500000000002,28,8
36,1.5159,1,4 x 9 =,smallFirst,largeProd,683,CBA,9.333333333333334,8,WAIS,1.0660500000000002,28,9
32,2.2156,1,8 x 4 =,largeFirst,largeProd,683,CBA,9.333333333333334,8,WAIS,1.0660500000000002,28,25
10,0.9995,1,5 x 2 =,largeFirst,smallProd,683,CBA,9.333333333333334,8,WAIS,1.0660500000000002,28,0
6,1.1327,1,3 x 2 =,largeFirst,smallProd,683,CBA,9.333333333333334,8,WAIS,1.0660500000000002,28,0
21,1.0995,1,3 x 7 =,smallFirst,smallProd,683,CBA,9.333333333333334,8,WAIS,1.0660500000000002,28,13
24,1.1827,1,3 x 8 =,smallFirst,smallProd,683,CBA,9.333333333333334,8,WAIS,1.0660500000000002,28,13
14,2.4987,1,7 x 2 =,largeFirst,smallProd,683,CBA,9.333333333333334,8,WAIS,1.0660500000000002,28,4
18,1.8324,1,2 x 9 =,smallFirst,smallProd,683,CBA,9.333333333333334,8,WAIS,1.0660500000000002,28,7
9,1.9157,1,3 x 3 =,tie,smallProd,683,CBA,9.333333333333334,8,WAIS,1.0660500000000002,28,0
42,3.7314,1,7 x 6 =,largeFirst,largeProd,683,CBA,9.333333333333334,8,WAIS,1.0660500000000002,28,22
8,1.1328,1,2 x 4 =,smallFirst,smallProd,683,CBA,9.333333333333334,8,WAIS,1.0660500000000002,28,1
56,1.6492,1,7 x 8 =,smallFirst,largeProd,683,CBA,9.333333333333334,8,WAIS,1.0660500000000002,28,9
48,1.5493,1,6 x 8 =,smallFirst,largeProd,683,CBA,9.333333333333334,8,WAIS,1.0660500000000002,28,11
12,1.1828,1,2 x 6 =,smallFirst,smallProd,683,CBA,9.333333333333334,8,WAIS,1.0660500000000002,28,3
18,1.749,1,6 x 3 =,largeFirst,smallProd,683,CBA,9.333333333333334,8,WAIS,1.0660500000000002,28,8
12,0.9328,1,4 x 3 =,largeFirst,smallProd,683,CBA,9.333333333333334,8,WAIS,1.0660500000000002,28,10
21,1.0307,1,7 x 3 =,largeFirst,smallProd,683,CBA,9.333333333333334,8,WAIS,1.0660500000000002,28,13
40,1.3158,1,8 x 5 =,largeFirst,largeProd,683,CBA,9.333333333333334,8,WAIS,1.0660500000000002,28,9
28,1.1663,1,7 x 4 =,largeFirst,largeProd,683,CBA,9.333333333333334,8,WAIS,1.0660500000000002,28,17
12,0.8162,1,3 x 4 =,smallFirst,smallProd,683,CBA,9.333333333333334,8,WAIS,1.0660500000000002,28,10
8,0.9829,1,4 x 2 =,largeFirst,smallProd,683,CBA,9.333333333333334,8,WAIS,1.0660500000000002,28,1
6,1.5326,1,2 x 3 =,smallFirst,smallProd,683,CBA,9.333333333333334,8,WAIS,1.0660500000000002,28,0
42,2.3322,1,6 x 7 =,smallFirst,largeProd,683,CBA,9.333333333333334,8,WAIS,1.0660500000000002,28,22
54,3.8148,0,7 x 9 =,smallFirst,largeProd,683,CBA,9.333333333333334,8,WAIS,1.0660500000000002,28,17
10,0.9807,1,2 x 5 =,smallFirst,smallProd,683,CBA,9.333333333333334,8,WAIS,1.0660500000000002,28,0
36,1.7659,1,9 x 4 =,largeFirst,largeProd,683,CBA,9.333333333333334,8,WAIS,1.0660500000000002,28,9
35,1.5826,1,5 x 7 =,smallFirst,largeProd,683,CBA,9.333333333333334,8,WAIS,1.0660500000000002,28,7
30,1.1162,1,5 x 6 =,smallFirst,largeProd,683,CBA,9.333333333333334,8,WAIS,1.0660500000000002,28,6
64,1.5824,1,8 x 8 =,tie,largeProd,683,CBA,9.333333333333334,8,WAIS,1.0660500000000002,28,19
24,1.4826,1,8 x 3 =,largeFirst,smallProd,683,CBA,9.333333333333334,8,WAIS,1.0660500000000002,28,13
27,1.3492,1,3 x 9 =,smallFirst,largeProd,683,CBA,9.333333333333334,8,WAIS,1.0660500000000002,28,9
