typedNumber,typingRT,answerCorr,typingLoopPract.thisRepN,typingLoopPract.thisTrialN,typingLoopPract.thisN,typingLoopPract.thisIndex,typingLoopPract.ran,productNo,participant,session,group,date,expName,psychopyVersion,OS,frameRate,typingRTrial.thisRepN,typingRTrial.thisTrialN,typingRTrial.thisN,typingRTrial.thisIndex,typingRTrial.ran,correct,respMousePrac.x,respMousePrac.y,respMousePrac.leftButton,respMousePrac.midButton,respMousePrac.rightButton,vptLoopPrac.thisRepN,vptLoopPrac.thisTrialN,vptLoopPrac.thisN,vptLoopPrac.thisIndex,vptLoopPrac.ran,tiles,rows,cols,vptCorrect,respMouse.x,respMouse.y,respMouse.leftButton,respMouse.midButton,respMouse.rightButton,trials.thisRepN,trials.thisTrialN,trials.thisN,trials.thisIndex,trials.ran,noOfBlocks,blockDuration,conditionLoop.thisRepN,conditionLoop.thisTrialN,conditionLoop.thisN,conditionLoop.thisIndex,conditionLoop.ran,sheet,readyMsg,TaskC.thisRepN,TaskC.thisTrialN,TaskC.thisN,TaskC.thisIndex,TaskC.ran,TaskOrderCond.thisRepN,TaskOrderCond.thisTrialN,TaskOrderCond.thisN,TaskOrderCond.thisIndex,TaskOrderCond.ran,nRepsTask1,nRepsTask2,nRepsTask3,typedAudioPrac,audioPracRT,audioPrCorr,audioLoopPrac.thisRepN,audioLoopPrac.thisTrialN,audioLoopPrac.thisN,audioLoopPrac.thisIndex,audioLoopPrac.ran,audiospan,digits_audio,soundsJS,EgnerDSresponse,EgnerDSrt,EgnerDSscore,audioRTrial.thisRepN,audioRTrial.thisTrialN,audioRTrial.thisN,audioRTrial.thisIndex,audioRTrial.ran,digitSpan,audioCondLoop.thisRepN,audioCondLoop.thisTrialN,audioCondLoop.thisN,audioCondLoop.thisIndex,audioCondLoop.ran,Condition,WAISDSresponse,WAISDSrt,WAISDSscore,audioRTrialwais.thisRepN,audioRTrialwais.thisTrialN,audioRTrialwais.thisN,audioRTrialwais.thisIndex,audioRTrialwais.ran,digitSpanWAIS,digits_audioWAIS,soundsWAIS,audioCondLoopwais.thisRepN,audioCondLoopwais.thisTrialN,audioCondLoopwais.thisN,audioCondLoopwais.thisIndex,audioCondLoopwais.ran,ConditionWAIS,TaskB.thisRepN,TaskB.thisTrialN,TaskB.thisN,TaskB.thisIndex,TaskB.ran,typedAnswer,multiplyRT,multiplyCorr,multiLoopPrac.thisRepN,multiLoopPrac.thisTrialN,multiLoopPrac.thisN,multiLoopPrac.thisIndex,multiLoopPrac.ran,problem,OperandType,productType,Answer,multiRTrial.thisRepN,multiRTrial.thisTrialN,multiRTrial.thisN,multiRTrial.thisIndex,multiRTrial.ran,trials_2.thisRepN,trials_2.thisTrialN,trials_2.thisN,trials_2.thisIndex,trials_2.ran,fileee,TaskA.thisRepN,TaskA.thisTrialN,TaskA.thisN,TaskA.thisIndex,TaskA.ran
41,1.9658,1,0,0,0,1,1,41,653,001,CBA,2022-06-20_10h10.25.467,workingMemoryTest,2020.2.10,Win32,60,,,,,,,,,,,,,,,,,,,,,,,,,,,,,,,,,,,,,,,,,,,,,,,,,,,,,,,,,,,,,,,,,,,,,,,,,,,,,,,,,,,,,,,,,,,,,,,,,,,,,,,,,,,,,,,,,,,,,,,,,,,,,,,,
39,1.633,1,0,1,1,0,1,39,653,001,CBA,2022-06-20_10h10.25.467,workingMemoryTest,2020.2.10,Win32,60,,,,,,,,,,,,,,,,,,,,,,,,,,,,,,,,,,,,,,,,,,,,,,,,,,,,,,,,,,,,,,,,,,,,,,,,,,,,,,,,,,,,,,,,,,,,,,,,,,,,,,,,,,,,,,,,,,,,,,,,,,,,,,,,
59,1.7823,1,0,2,2,2,1,59,653,001,CBA,2022-06-20_10h10.25.467,workingMemoryTest,2020.2.10,Win32,60,,,,,,,,,,,,,,,,,,,,,,,,,,,,,,,,,,,,,,,,,,,,,,,,,,,,,,,,,,,,,,,,,,,,,,,,,,,,,,,,,,,,,,,,,,,,,,,,,,,,,,,,,,,,,,,,,,,,,,,,,,,,,,,,
36,1.75,1,,,,,,36,653,001,CBA,2022-06-20_10h10.25.467,workingMemoryTest,2020.2.10,Win32,60,0,0,0,17,1,,,,,,,,,,,,,,,,,,,,,,,,,,,,,,,,,,,,,,,,,,,,,,,,,,,,,,,,,,,,,,,,,,,,,,,,,,,,,,,,,,,,,,,,,,,,,,,,,,,,,,,,,,,,,,,,,,,,,,,,,,,
63,1.5497,1,,,,,,63,653,001,CBA,2022-06-20_10h10.25.467,workingMemoryTest,2020.2.10,Win32,60,0,1,1,25,1,,,,,,,,,,,,,,,,,,,,,,,,,,,,,,,,,,,,,,,,,,,,,,,,,,,,,,,,,,,,,,,,,,,,,,,,,,,,,,,,,,,,,,,,,,,,,,,,,,,,,,,,,,,,,,,,,,,,,,,,,,,
48,1.6829,1,,,,,,48,653,001,CBA,2022-06-20_10h10.25.467,workingMemoryTest,2020.2.10,Win32,60,0,2,2,21,1,,,,,,,,,,,,,,,,,,,,,,,,,,,,,,,,,,,,,,,,,,,,,,,,,,,,,,,,,,,,,,,,,,,,,,,,,,,,,,,,,,,,,,,,,,,,,,,,,,,,,,,,,,,,,,,,,,,,,,,,,,,
28,1.2658,1,,,,,,28,653,001,CBA,2022-06-20_10h10.25.467,workingMemoryTest,2020.2.10,Win32,60,0,3,3,13,1,,,,,,,,,,,,,,,,,,,,,,,,,,,,,,,,,,,,,,,,,,,,,,,,,,,,,,,,,,,,,,,,,,,,,,,,,,,,,,,,,,,,,,,,,,,,,,,,,,,,,,,,,,,,,,,,,,,,,,,,,,,
10,1.0333,1,,,,,,10,653,001,CBA,2022-06-20_10h10.25.467,workingMemoryTest,2020.2.10,Win32,60,0,4,4,3,1,,,,,,,,,,,,,,,,,,,,,,,,,,,,,,,,,,,,,,,,,,,,,,,,,,,,,,,,,,,,,,,,,,,,,,,,,,,,,,,,,,,,,,,,,,,,,,,,,,,,,,,,,,,,,,,,,,,,,,,,,,,
9,1.5992,1,,,,,,9,653,001,CBA,2022-06-20_10h10.25.467,workingMemoryTest,2020.2.10,Win32,60,0,5,5,1,1,,,,,,,,,,,,,,,,,,,,,,,,,,,,,,,,,,,,,,,,,,,,,,,,,,,,,,,,,,,,,,,,,,,,,,,,,,,,,,,,,,,,,,,,,,,,,,,,,,,,,,,,,,,,,,,,,,,,,,,,,,,
32,2.0998,1,,,,,,32,653,001,CBA,2022-06-20_10h10.25.467,workingMemoryTest,2020.2.10,Win32,60,0,6,6,15,1,,,,,,,,,,,,,,,,,,,,,,,,,,,,,,,,,,,,,,,,,,,,,,,,,,,,,,,,,,,,,,,,,,,,,,,,,,,,,,,,,,,,,,,,,,,,,,,,,,,,,,,,,,,,,,,,,,,,,,,,,,,
21,0.9497,1,,,,,,21,653,001,CBA,2022-06-20_10h10.25.467,workingMemoryTest,2020.2.10,Win32,60,0,7,7,10,1,,,,,,,,,,,,,,,,,,,,,,,,,,,,,,,,,,,,,,,,,,,,,,,,,,,,,,,,,,,,,,,,,,,,,,,,,,,,,,,,,,,,,,,,,,,,,,,,,,,,,,,,,,,,,,,,,,,,,,,,,,,
45,1.2158,1,,,,,,45,653,001,CBA,2022-06-20_10h10.25.467,workingMemoryTest,2020.2.10,Win32,60,0,8,8,20,1,,,,,,,,,,,,,,,,,,,,,,,,,,,,,,,,,,,,,,,,,,,,,,,,,,,,,,,,,,,,,,,,,,,,,,,,,,,,,,,,,,,,,,,,,,,,,,,,,,,,,,,,,,,,,,,,,,,,,,,,,,,
20,1.4331,1,,,,,,20,653,001,CBA,2022-06-20_10h10.25.467,workingMemoryTest,2020.2.10,Win32,60,0,9,9,9,1,,,,,,,,,,,,,,,,,,,,,,,,,,,,,,,,,,,,,,,,,,,,,,,,,,,,,,,,,,,,,,,,,,,,,,,,,,,,,,,,,,,,,,,,,,,,,,,,,,,,,,,,,,,,,,,,,,,,,,,,,,,
64,1.3001,1,,,,,,64,653,001,CBA,2022-06-20_10h10.25.467,workingMemoryTest,2020.2.10,Win32,60,0,10,10,26,1,,,,,,,,,,,,,,,,,,,,,,,,,,,,,,,,,,,,,,,,,,,,,,,,,,,,,,,,,,,,,,,,,,,,,,,,,,,,,,,,,,,,,,,,,,,,,,,,,,,,,,,,,,,,,,,,,,,,,,,,,,,
6,1.2329,1,,,,,,6,653,001,CBA,2022-06-20_10h10.25.467,workingMemoryTest,2020.2.10,Win32,60,0,11,11,0,1,,,,,,,,,,,,,,,,,,,,,,,,,,,,,,,,,,,,,,,,,,,,,,,,,,,,,,,,,,,,,,,,,,,,,,,,,,,,,,,,,,,,,,,,,,,,,,,,,,,,,,,,,,,,,,,,,,,,,,,,,,,
15,1.466,1,,,,,,15,653,001,CBA,2022-06-20_10h10.25.467,workingMemoryTest,2020.2.10,Win32,60,0,12,12,6,1,,,,,,,,,,,,,,,,,,,,,,,,,,,,,,,,,,,,,,,,,,,,,,,,,,,,,,,,,,,,,,,,,,,,,,,,,,,,,,,,,,,,,,,,,,,,,,,,,,,,,,,,,,,,,,,,,,,,,,,,,,,
72,1.333,1,,,,,,72,653,001,CBA,2022-06-20_10h10.25.467,workingMemoryTest,2020.2.10,Win32,60,0,13,13,27,1,,,,,,,,,,,,,,,,,,,,,,,,,,,,,,,,,,,,,,,,,,,,,,,,,,,,,,,,,,,,,,,,,,,,,,,,,,,,,,,,,,,,,,,,,,,,,,,,,,,,,,,,,,,,,,,,,,,,,,,,,,,
35,1.5823,1,,,,,,35,653,001,CBA,2022-06-20_10h10.25.467,workingMemoryTest,2020.2.10,Win32,60,0,14,14,16,1,,,,,,,,,,,,,,,,,,,,,,,,,,,,,,,,,,,,,,,,,,,,,,,,,,,,,,,,,,,,,,,,,,,,,,,,,,,,,,,,,,,,,,,,,,,,,,,,,,,,,,,,,,,,,,,,,,,,,,,,,,,
16,1.3829,1,,,,,,16,653,001,CBA,2022-06-20_10h10.25.467,workingMemoryTest,2020.2.10,Win32,60,0,15,15,7,1,,,,,,,,,,,,,,,,,,,,,,,,,,,,,,,,,,,,,,,,,,,,,,,,,,,,,,,,,,,,,,,,,,,,,,,,,,,,,,,,,,,,,,,,,,,,,,,,,,,,,,,,,,,,,,,,,,,,,,,,,,,
54,1.1332,1,,,,,,54,653,001,CBA,2022-06-20_10h10.25.467,workingMemoryTest,2020.2.10,Win32,60,0,16,16,23,1,,,,,,,,,,,,,,,,,,,,,,,,,,,,,,,,,,,,,,,,,,,,,,,,,,,,,,,,,,,,,,,,,,,,,,,,,,,,,,,,,,,,,,,,,,,,,,,,,,,,,,,,,,,,,,,,,,,,,,,,,,,
12,0.8332,1,,,,,,12,653,001,CBA,2022-06-20_10h10.25.467,workingMemoryTest,2020.2.10,Win32,60,0,17,17,4,1,,,,,,,,,,,,,,,,,,,,,,,,,,,,,,,,,,,,,,,,,,,,,,,,,,,,,,,,,,,,,,,,,,,,,,,,,,,,,,,,,,,,,,,,,,,,,,,,,,,,,,,,,,,,,,,,,,,,,,,,,,,
42,1.3665,1,,,,,,42,653,001,CBA,2022-06-20_10h10.25.467,workingMemoryTest,2020.2.10,Win32,60,0,18,18,19,1,,,,,,,,,,,,,,,,,,,,,,,,,,,,,,,,,,,,,,,,,,,,,,,,,,,,,,,,,,,,,,,,,,,,,,,,,,,,,,,,,,,,,,,,,,,,,,,,,,,,,,,,,,,,,,,,,,,,,,,,,,,
24,1.2827,1,,,,,,24,653,001,CBA,2022-06-20_10h10.25.467,workingMemoryTest,2020.2.10,Win32,60,0,19,19,11,1,,,,,,,,,,,,,,,,,,,,,,,,,,,,,,,,,,,,,,,,,,,,,,,,,,,,,,,,,,,,,,,,,,,,,,,,,,,,,,,,,,,,,,,,,,,,,,,,,,,,,,,,,,,,,,,,,,,,,,,,,,,
18,1.016,1,,,,,,18,653,001,CBA,2022-06-20_10h10.25.467,workingMemoryTest,2020.2.10,Win32,60,0,20,20,8,1,,,,,,,,,,,,,,,,,,,,,,,,,,,,,,,,,,,,,,,,,,,,,,,,,,,,,,,,,,,,,,,,,,,,,,,,,,,,,,,,,,,,,,,,,,,,,,,,,,,,,,,,,,,,,,,,,,,,,,,,,,,
27,1.9158,1,,,,,,27,653,001,CBA,2022-06-20_10h10.25.467,workingMemoryTest,2020.2.10,Win32,60,0,21,21,12,1,,,,,,,,,,,,,,,,,,,,,,,,,,,,,,,,,,,,,,,,,,,,,,,,,,,,,,,,,,,,,,,,,,,,,,,,,,,,,,,,,,,,,,,,,,,,,,,,,,,,,,,,,,,,,,,,,,,,,,,,,,,
49,2.4497,1,,,,,,49,653,001,CBA,2022-06-20_10h10.25.467,workingMemoryTest,2020.2.10,Win32,60,0,22,22,22,1,,,,,,,,,,,,,,,,,,,,,,,,,,,,,,,,,,,,,,,,,,,,,,,,,,,,,,,,,,,,,,,,,,,,,,,,,,,,,,,,,,,,,,,,,,,,,,,,,,,,,,,,,,,,,,,,,,,,,,,,,,,
40,2.2329,1,,,,,,40,653,001,CBA,2022-06-20_10h10.25.467,workingMemoryTest,2020.2.10,Win32,60,0,23,23,18,1,,,,,,,,,,,,,,,,,,,,,,,,,,,,,,,,,,,,,,,,,,,,,,,,,,,,,,,,,,,,,,,,,,,,,,,,,,,,,,,,,,,,,,,,,,,,,,,,,,,,,,,,,,,,,,,,,,,,,,,,,,,
14,1.0831,1,,,,,,14,653,001,CBA,2022-06-20_10h10.25.467,workingMemoryTest,2020.2.10,Win32,60,0,24,24,5,1,,,,,,,,,,,,,,,,,,,,,,,,,,,,,,,,,,,,,,,,,,,,,,,,,,,,,,,,,,,,,,,,,,,,,,,,,,,,,,,,,,,,,,,,,,,,,,,,,,,,,,,,,,,,,,,,,,,,,,,,,,,
8,1.0161,1,,,,,,8,653,001,CBA,2022-06-20_10h10.25.467,workingMemoryTest,2020.2.10,Win32,60,0,25,25,2,1,,,,,,,,,,,,,,,,,,,,,,,,,,,,,,,,,,,,,,,,,,,,,,,,,,,,,,,,,,,,,,,,,,,,,,,,,,,,,,,,,,,,,,,,,,,,,,,,,,,,,,,,,,,,,,,,,,,,,,,,,,,
30,1.3332,1,,,,,,30,653,001,CBA,2022-06-20_10h10.25.467,workingMemoryTest,2020.2.10,Win32,60,0,26,26,14,1,,,,,,,,,,,,,,,,,,,,,,,,,,,,,,,,,,,,,,,,,,,,,,,,,,,,,,,,,,,,,,,,,,,,,,,,,,,,,,,,,,,,,,,,,,,,,,,,,,,,,,,,,,,,,,,,,,,,,,,,,,,
56,1.2501,1,,,,,,56,653,001,CBA,2022-06-20_10h10.25.467,workingMemoryTest,2020.2.10,Win32,60,0,27,27,24,1,,,,,,,,,,,,,,,,,,,,,,,,,,,,,,,,,,,,,,,,,,,,,,,,,,,,,,,,,,,,,,,,,,,,,,,,,,,,,,,,,,,,,,,,,,,,,,,,,,,,,,,,,,,,,,,,,,,,,,,,,,,
,,,,,,,,,653,001,CBA,2022-06-20_10h10.25.467,workingMemoryTest,2020.2.10,Win32,60,,,,,,TRUE,0.062962991,-0.325925968,1,0,0,0,0,0,1,1,,3,3,,,,,,,,,,,,,,,,,,,,,,,,,,,,,,,,,,,,,,,,,,,,,,,,,,,,,,,,,,,,,,,,,,,,,,,,,,,,,,,,,,,,,,,,,,,,,,,,,,,,,,,,,,,,,
,,,,,,,,,653,001,CBA,2022-06-20_10h10.25.467,workingMemoryTest,2020.2.10,Win32,60,,,,,,TRUE,0.046296296,-0.320370356,1,0,0,0,1,1,0,1,,3,3,,,,,,,,,,,,,,,,,,,,,,,,,,,,,,,,,,,,,,,,,,,,,,,,,,,,,,,,,,,,,,,,,,,,,,,,,,,,,,,,,,,,,,,,,,,,,,,,,,,,,,,,,,,,,
,,,,,,,,,653,001,CBA,2022-06-20_10h10.25.467,workingMemoryTest,2020.2.10,Win32,60,,,,,,TRUE,0.017592607,-0.32685188,1,0,0,0,2,2,2,1,,3,3,,,,,,,,,,,,,,,,,,,,,,,,,,,,,,,,,,,,,,,,,,,,,,,,,,,,,,,,,,,,,,,,,,,,,,,,,,,,,,,,,,,,,,,,,,,,,,,,,,,,,,,,,,,,,
,,,,,,,,,653,001,CBA,2022-06-20_10h10.25.467,workingMemoryTest,2020.2.10,Win32,60,,,,,,,,,,,,,,,,,,2,2,TRUE,-0.013888889,-0.317592621,1,0,0,0,0,0,0,1,2,2,,,,,,,,,,,,,,,,,,,,,,,,,,,,,,,,,,,,,,,,,,,,,,,,,,,,,,,,,,,,,,,,,,,,,,,,,,,,,,,,,,,,,,,,,,,,,,,,
,,,,,,,,,653,001,CBA,2022-06-20_10h10.25.467,workingMemoryTest,2020.2.10,Win32,60,,,,,,,,,,,,,,,,,,2,2,TRUE,0.029629672,-0.348148134,1,0,0,0,1,1,1,1,2,2,,,,,,,,,,,,,,,,,,,,,,,,,,,,,,,,,,,,,,,,,,,,,,,,,,,,,,,,,,,,,,,,,,,,,,,,,,,,,,,,,,,,,,,,,,,,,,,,
,,,,,,,,,653,001,CBA,2022-06-20_10h10.25.467,workingMemoryTest,2020.2.10,Win32,60,,,,,,,,,,,,,,,,,,2,2,TRUE,0.012037065,-0.361111111,1,0,0,0,2,2,2,1,2,2,,,,,,,,,,,,,,,,,,,,,,,,,,,,,,,,,,,,,,,,,,,,,,,,,,,,,,,,,,,,,,,,,,,,,,,,,,,,,,,,,,,,,,,,,,,,,,,,
,,,,,,,,,653,001,CBA,2022-06-20_10h10.25.467,workingMemoryTest,2020.2.10,Win32,60,,,,,,,,,,,,,,,,,,,,,,,,,,,,,,,,,0,0,0,0,1,blockTwo.xlsx,Ready for the next set? ,,,,,,,,,,,,,,,,,,,,,,,,,,,,,,,,,,,,,,,,,,,,,,,,,,,,,,,,,,,,,,,,,,,,,,,,,,,,,,,,,,,,,,,,,
,,,,,,,,,653,001,CBA,2022-06-20_10h10.25.467,workingMemoryTest,2020.2.10,Win32,60,,,,,,,,,,,,,,,,,,3,3,TRUE,0.010185171,-0.345370399,1,0,0,0,0,0,0,1,3,2,,,,,,,,,,,,,,,,,,,,,,,,,,,,,,,,,,,,,,,,,,,,,,,,,,,,,,,,,,,,,,,,,,,,,,,,,,,,,,,,,,,,,,,,,,,,,,,,
,,,,,,,,,653,001,CBA,2022-06-20_10h10.25.467,workingMemoryTest,2020.2.10,Win32,60,,,,,,,,,,,,,,,,,,3,3,TRUE,0.010185171,-0.347222222,1,0,0,0,1,1,1,1,3,2,,,,,,,,,,,,,,,,,,,,,,,,,,,,,,,,,,,,,,,,,,,,,,,,,,,,,,,,,,,,,,,,,,,,,,,,,,,,,,,,,,,,,,,,,,,,,,,,
,,,,,,,,,653,001,CBA,2022-06-20_10h10.25.467,workingMemoryTest,2020.2.10,Win32,60,,,,,,,,,,,,,,,,,,3,3,TRUE,0.00462963,-0.330555598,1,0,0,0,2,2,2,1,3,2,,,,,,,,,,,,,,,,,,,,,,,,,,,,,,,,,,,,,,,,,,,,,,,,,,,,,,,,,,,,,,,,,,,,,,,,,,,,,,,,,,,,,,,,,,,,,,,,
,,,,,,,,,653,001,CBA,2022-06-20_10h10.25.467,workingMemoryTest,2020.2.10,Win32,60,,,,,,,,,,,,,,,,,,,,,,,,,,,,,,,,,0,1,1,1,1,blockThree.xlsx,Ready for the next set? ,,,,,,,,,,,,,,,,,,,,,,,,,,,,,,,,,,,,,,,,,,,,,,,,,,,,,,,,,,,,,,,,,,,,,,,,,,,,,,,,,,,,,,,,,
,,,,,,,,,653,001,CBA,2022-06-20_10h10.25.467,workingMemoryTest,2020.2.10,Win32,60,,,,,,,,,,,,,,,,,,3,3,TRUE,0.05277782,-0.344444487,1,0,0,0,0,0,0,1,4,2,,,,,,,,,,,,,,,,,,,,,,,,,,,,,,,,,,,,,,,,,,,,,,,,,,,,,,,,,,,,,,,,,,,,,,,,,,,,,,,,,,,,,,,,,,,,,,,,
,,,,,,,,,653,001,CBA,2022-06-20_10h10.25.467,workingMemoryTest,2020.2.10,Win32,60,,,,,,,,,,,,,,,,,,3,3,TRUE,0.05277782,-0.354629658,1,0,0,0,1,1,1,1,4,2,,,,,,,,,,,,,,,,,,,,,,,,,,,,,,,,,,,,,,,,,,,,,,,,,,,,,,,,,,,,,,,,,,,,,,,,,,,,,,,,,,,,,,,,,,,,,,,,
,,,,,,,,,653,001,CBA,2022-06-20_10h10.25.467,workingMemoryTest,2020.2.10,Win32,60,,,,,,,,,,,,,,,,,,3,3,TRUE,0.009259259,-0.329629616,1,0,0,0,2,2,2,1,4,2,,,,,,,,,,,,,,,,,,,,,,,,,,,,,,,,,,,,,,,,,,,,,,,,,,,,,,,,,,,,,,,,,,,,,,,,,,,,,,,,,,,,,,,,,,,,,,,,
,,,,,,,,,653,001,CBA,2022-06-20_10h10.25.467,workingMemoryTest,2020.2.10,Win32,60,,,,,,,,,,,,,,,,,,,,,,,,,,,,,,,,,0,2,2,2,1,blockFour.xlsx,Ready for the next set? ,,,,,,,,,,,,,,,,,,,,,,,,,,,,,,,,,,,,,,,,,,,,,,,,,,,,,,,,,,,,,,,,,,,,,,,,,,,,,,,,,,,,,,,,,
,,,,,,,,,653,001,CBA,2022-06-20_10h10.25.467,workingMemoryTest,2020.2.10,Win32,60,,,,,,,,,,,,,,,,,,4,4,TRUE,0.000925912,-0.341666681,1,0,0,0,0,0,0,1,5,,,,,,,,,,,,,,,,,,,,,,,,,,,,,,,,,,,,,,,,,,,,,,,,,,,,,,,,,,,,,,,,,,,,,,,,,,,,,,,,,,,,,,,,,,,,,,,,,
,,,,,,,,,653,001,CBA,2022-06-20_10h10.25.467,workingMemoryTest,2020.2.10,Win32,60,,,,,,,,,,,,,,,,,,4,4,TRUE,-0.009259259,-0.317592621,1,0,0,0,1,1,1,1,5,,,,,,,,,,,,,,,,,,,,,,,,,,,,,,,,,,,,,,,,,,,,,,,,,,,,,,,,,,,,,,,,,,,,,,,,,,,,,,,,,,,,,,,,,,,,,,,,,
,,,,,,,,,653,001,CBA,2022-06-20_10h10.25.467,workingMemoryTest,2020.2.10,Win32,60,,,,,,,,,,,,,,,,,,4,4,TRUE,-0.016666624,-0.315740727,1,0,0,0,2,2,2,1,5,,,,,,,,,,,,,,,,,,,,,,,,,,,,,,,,,,,,,,,,,,,,,,,,,,,,,,,,,,,,,,,,,,,,,,,,,,,,,,,,,,,,,,,,,,,,,,,,,
,,,,,,,,,653,001,CBA,2022-06-20_10h10.25.467,workingMemoryTest,2020.2.10,Win32,60,,,,,,,,,,,,,,,,,,,,,,,,,,,,,,,,,0,3,3,3,1,blockFive.xlsx,Ready for the next set? ,,,,,,,,,,,,,,,,,,,,,,,,,,,,,,,,,,,,,,,,,,,,,,,,,,,,,,,,,,,,,,,,,,,,,,,,,,,,,,,,,,,,,,,,,
,,,,,,,,,653,001,CBA,2022-06-20_10h10.25.467,workingMemoryTest,2020.2.10,Win32,60,,,,,,,,,,,,,,,,,,4,4,FALSE,0.067592621,-0.344444487,1,0,0,0,0,0,0,1,6,,,,,,,,,,,,,,,,,,,,,,,,,,,,,,,,,,,,,,,,,,,,,,,,,,,,,,,,,,,,,,,,,,,,,,,,,,,,,,,,,,,,,,,,,,,,,,,,,
,,,,,,,,,653,001,CBA,2022-06-20_10h10.25.467,workingMemoryTest,2020.2.10,Win32,60,,,,,,,,,,,,,,,,,,4,4,TRUE,0.062962991,-0.339814857,1,0,0,0,1,1,1,1,6,,,,,,,,,,,,,,,,,,,,,,,,,,,,,,,,,,,,,,,,,,,,,,,,,,,,,,,,,,,,,,,,,,,,,,,,,,,,,,,,,,,,,,,,,,,,,,,,,
,,,,,,,,,653,001,CBA,2022-06-20_10h10.25.467,workingMemoryTest,2020.2.10,Win32,60,,,,,,,,,,,,,,,,,,4,4,TRUE,0.064814815,-0.357407393,1,0,0,0,2,2,2,1,6,,,,,,,,,,,,,,,,,,,,,,,,,,,,,,,,,,,,,,,,,,,,,,,,,,,,,,,,,,,,,,,,,,,,,,,,,,,,,,,,,,,,,,,,,,,,,,,,,
,,,,,,,,,653,001,CBA,2022-06-20_10h10.25.467,workingMemoryTest,2020.2.10,Win32,60,,,,,,,,,,,,,,,,,,,,,,,,,,,,,,,,,0,4,4,4,1,blockSix.xlsx,Ready for the next set? ,,,,,,,,,,,,,,,,,,,,,,,,,,,,,,,,,,,,,,,,,,,,,,,,,,,,,,,,,,,,,,,,,,,,,,,,,,,,,,,,,,,,,,,,,
,,,,,,,,,653,001,CBA,2022-06-20_10h10.25.467,workingMemoryTest,2020.2.10,Win32,60,,,,,,,,,,,,,,,,,,4,4,TRUE,0.102777764,-0.358333376,1,0,0,0,0,0,0,1,7,,,,,,,,,,,,,,,,,,,,,,,,,,,,,,,,,,,,,,,,,,,,,,,,,,,,,,,,,,,,,,,,,,,,,,,,,,,,,,,,,,,,,,,,,,,,,,,,,
,,,,,,,,,653,001,CBA,2022-06-20_10h10.25.467,workingMemoryTest,2020.2.10,Win32,60,,,,,,,,,,,,,,,,,,4,4,TRUE,-0.003703718,-0.362963005,1,0,0,0,1,1,1,1,7,,,,,,,,,,,,,,,,,,,,,,,,,,,,,,,,,,,,,,,,,,,,,,,,,,,,,,,,,,,,,,,,,,,,,,,,,,,,,,,,,,,,,,,,,,,,,,,,,
,,,,,,,,,653,001,CBA,2022-06-20_10h10.25.467,workingMemoryTest,2020.2.10,Win32,60,,,,,,,,,,,,,,,,,,4,4,TRUE,0.02870369,-0.357407393,1,0,0,0,2,2,2,1,7,,,,,,,,,,,,,,,,,,,,,,,,,,,,,,,,,,,,,,,,,,,,,,,,,,,,,,,,,,,,,,,,,,,,,,,,,,,,,,,,,,,,,,,,,,,,,,,,,
,,,,,,,,,653,001,CBA,2022-06-20_10h10.25.467,workingMemoryTest,2020.2.10,Win32,60,,,,,,,,,,,,,,,,,,,,,,,,,,,,,,,,,0,5,5,5,1,blockSeven.xlsx,Ready for the next set? ,,,,,,,,,,,,,,,,,,,,,,,,,,,,,,,,,,,,,,,,,,,,,,,,,,,,,,,,,,,,,,,,,,,,,,,,,,,,,,,,,,,,,,,,,
,,,,,,,,,653,001,CBA,2022-06-20_10h10.25.467,workingMemoryTest,2020.2.10,Win32,60,,,,,,,,,,,,,,,,,,4,4,TRUE,-0.053703661,-0.362963005,1,0,0,0,0,0,0,1,8,,,,,,,,,,,,,,,,,,,,,,,,,,,,,,,,,,,,,,,,,,,,,,,,,,,,,,,,,,,,,,,,,,,,,,,,,,,,,,,,,,,,,,,,,,,,,,,,,
,,,,,,,,,653,001,CBA,2022-06-20_10h10.25.467,workingMemoryTest,2020.2.10,Win32,60,,,,,,,,,,,,,,,,,,4,4,TRUE,-0.011111083,-0.356481481,1,0,0,0,1,1,1,1,8,,,,,,,,,,,,,,,,,,,,,,,,,,,,,,,,,,,,,,,,,,,,,,,,,,,,,,,,,,,,,,,,,,,,,,,,,,,,,,,,,,,,,,,,,,,,,,,,,
,,,,,,,,,653,001,CBA,2022-06-20_10h10.25.467,workingMemoryTest,2020.2.10,Win32,60,,,,,,,,,,,,,,,,,,4,4,TRUE,0.043518561,-0.336111139,1,0,0,0,2,2,2,1,8,,,,,,,,,,,,,,,,,,,,,,,,,,,,,,,,,,,,,,,,,,,,,,,,,,,,,,,,,,,,,,,,,,,,,,,,,,,,,,,,,,,,,,,,,,,,,,,,,
,,,,,,,,,653,001,CBA,2022-06-20_10h10.25.467,workingMemoryTest,2020.2.10,Win32,60,,,,,,,,,,,,,,,,,,,,,,,,,,,,,,,,,0,6,6,6,1,blockEight.xlsx,Ready for the next set? ,,,,,,,,,,,,,,,,,,,,,,,,,,,,,,,,,,,,,,,,,,,,,,,,,,,,,,,,,,,,,,,,,,,,,,,,,,,,,,,,,,,,,,,,,
,,,,,,,,,653,001,CBA,2022-06-20_10h10.25.467,workingMemoryTest,2020.2.10,Win32,60,,,,,,,,,,,,,,,,,,5,5,TRUE,0,-0.344444487,1,0,0,0,0,0,0,1,9,,,,,,,,,,,,,,,,,,,,,,,,,,,,,,,,,,,,,,,,,,,,,,,,,,,,,,,,,,,,,,,,,,,,,,,,,,,,,,,,,,,,,,,,,,,,,,,,,
,,,,,,,,,653,001,CBA,2022-06-20_10h10.25.467,workingMemoryTest,2020.2.10,Win32,60,,,,,,,,,,,,,,,,,,5,5,TRUE,0.025925954,-0.343518504,1,0,0,0,1,1,1,1,9,,,,,,,,,,,,,,,,,,,,,,,,,,,,,,,,,,,,,,,,,,,,,,,,,,,,,,,,,,,,,,,,,,,,,,,,,,,,,,,,,,,,,,,,,,,,,,,,,
,,,,,,,,,653,001,CBA,2022-06-20_10h10.25.467,workingMemoryTest,2020.2.10,Win32,60,,,,,,,,,,,,,,,,,,5,5,TRUE,0.061111097,-0.362037023,1,0,0,0,2,2,2,1,9,,,,,,,,,,,,,,,,,,,,,,,,,,,,,,,,,,,,,,,,,,,,,,,,,,,,,,,,,,,,,,,,,,,,,,,,,,,,,,,,,,,,,,,,,,,,,,,,,
,,,,,,,,,653,001,CBA,2022-06-20_10h10.25.467,workingMemoryTest,2020.2.10,Win32,60,,,,,,,,,,,,,,,,,,,,,,,,,,,,,,,,,0,7,7,7,1,blockNine.xlsx,Ready for the next set? ,,,,,,,,,,,,,,,,,,,,,,,,,,,,,,,,,,,,,,,,,,,,,,,,,,,,,,,,,,,,,,,,,,,,,,,,,,,,,,,,,,,,,,,,,
,,,,,,,,,653,001,CBA,2022-06-20_10h10.25.467,workingMemoryTest,2020.2.10,Win32,60,,,,,,,,,,,,,,,,,,5,5,FALSE,0.047222208,-0.325925968,1,0,0,0,0,0,0,1,10,,,,,,,,,,,,,,,,,,,,,,,,,,,,,,,,,,,,,,,,,,,,,,,,,,,,,,,,,,,,,,,,,,,,,,,,,,,,,,,,,,,,,,,,,,,,,,,,,
,,,,,,,,,653,001,CBA,2022-06-20_10h10.25.467,workingMemoryTest,2020.2.10,Win32,60,,,,,,,,,,,,,,,,,,5,5,FALSE,0.074074074,-0.341666681,1,0,0,0,1,1,1,1,10,,,,,,,,,,,,,,,,,,,,,,,,,,,,,,,,,,,,,,,,,,,,,,,,,,,,,,,,,,,,,,,,,,,,,,,,,,,,,,,,,,,,,,,,,,,,,,,,,
,,,,,,,,,653,001,CBA,2022-06-20_10h10.25.467,workingMemoryTest,2020.2.10,Win32,60,,,,,,,,,,,,,,,,,,,,,,,,,,,,,,,,,,,,,,,,0,0,0,0,1,,,,,,,,,,,,,,,,,,,,,,,,,,,,,,,,,,,,,,,,,,,,,,,,,,,,,,,,,,,,,,,,,,,,,,,,,,,,,,,,,,,,
,,,,,,,,,653,001,CBA,2022-06-20_10h10.25.467,workingMemoryTest,2020.2.10,Win32,60,,,,,,,,,,,,,,,,,,,,,,,,,,,,,,,,,,,,,,,,,,,,,0,0,0,0,1,0,0,1,,,,,,,,,,,,,,,,,,,,,,,,,,,,,,,,,,,,,,,,,,,,,,,,,,,,,,,,,,,,,,,,,,,,,,,,,,,,
,,,,,,,,,653,001,CBA,2022-06-20_10h10.25.467,workingMemoryTest,2020.2.10,Win32,60,,,,,,,,,,,,,,,,,,,,,,,,,,,,,,,,,,,,,,,,,,,,,,,,,,,,,123,1.5683,1,0,0,0,0,1,practice,123,Audio/123.mp3,,,,,,,,,,,,,,,,,,,,,,,,,,,,,,,,,,,,,,,,,,,,,,,,,,,,,,,,,,,,,,,,,
,,,,,,,,,653,001,CBA,2022-06-20_10h10.25.467,workingMemoryTest,2020.2.10,Win32,60,,,,,,,,,,,,,,,,,,,,,,,,,,,,,,,,,,,,,,,,,,,,,,,,,,,,,321,4.7323,1,0,1,1,1,1,practice,321,Audio/321.mp3,,,,,,,,,,,,,,,,,,,,,,,,,,,,,,,,,,,,,,,,,,,,,,,,,,,,,,,,,,,,,,,,,
,,,,,,,,,653,001,CBA,2022-06-20_10h10.25.467,workingMemoryTest,2020.2.10,Win32,60,,,,,,,,,,,,,,,,,,,,,,,,,,,,,,,,,,,,,,,,,,,,,,,,,,,,,911,1.5007,1,0,2,2,2,1,practice,911,Audio/911.mp3,,,,,,,,,,,,,,,,,,,,,,,,,,,,,,,,,,,,,,,,,,,,,,,,,,,,,,,,,,,,,,,,,
,,,,,,,,,653,001,CBA,2022-06-20_10h10.25.467,workingMemoryTest,2020.2.10,Win32,60,,,,,,,,,,,,,,,,,,,,,,,,,,,,,,,,,,,,,,,,,,,,,,,,,,,,,,,,,,,,,,46,Audio/46.mp3,46,0.8823,1,0,0,0,0,1,2,,,,,,,,,,,,,,,,,,,,,,,,,,,,,,,,,,,,,,,,,,,,,,,,,,,,,,,,
,,,,,,,,,653,001,CBA,2022-06-20_10h10.25.467,workingMemoryTest,2020.2.10,Win32,60,,,,,,,,,,,,,,,,,,,,,,,,,,,,,,,,,,,,,,,,,,,,,,,,,,,,,,,,,,,,,,,,,,,,,,,,,0,0,0,0,1,twoAudio.xlsx,,,,,,,,,,,,,,,,,,,,,,,,,,,,,,,,,,,,,,,,,,,,,,,,,,
,,,,,,,,,653,001,CBA,2022-06-20_10h10.25.467,workingMemoryTest,2020.2.10,Win32,60,,,,,,,,,,,,,,,,,,,,,,,,,,,,,,,,,,,,,,,,,,,,,,,,,,,,,,,,,,,,,,157,Audio/157.mp3,157,1.0994,1,0,0,0,0,1,3,,,,,,,,,,,,,,,,,,,,,,,,,,,,,,,,,,,,,,,,,,,,,,,,,,,,,,,,
,,,,,,,,,653,001,CBA,2022-06-20_10h10.25.467,workingMemoryTest,2020.2.10,Win32,60,,,,,,,,,,,,,,,,,,,,,,,,,,,,,,,,,,,,,,,,,,,,,,,,,,,,,,,,,,,,,,,,,,,,,,,,,0,1,1,1,1,threeAudio.xlsx,,,,,,,,,,,,,,,,,,,,,,,,,,,,,,,,,,,,,,,,,,,,,,,,,,
,,,,,,,,,653,001,CBA,2022-06-20_10h10.25.467,workingMemoryTest,2020.2.10,Win32,60,,,,,,,,,,,,,,,,,,,,,,,,,,,,,,,,,,,,,,,,,,,,,,,,,,,,,,,,,,,,,,6352,Audio/6352.mp3,6352,1.4383,1,0,0,0,0,1,4,,,,,,,,,,,,,,,,,,,,,,,,,,,,,,,,,,,,,,,,,,,,,,,,,,,,,,,,
,,,,,,,,,653,001,CBA,2022-06-20_10h10.25.467,workingMemoryTest,2020.2.10,Win32,60,,,,,,,,,,,,,,,,,,,,,,,,,,,,,,,,,,,,,,,,,,,,,,,,,,,,,,,,,,,,,,,,,,,,,,,,,0,2,2,2,1,fourAudio.xlsx,,,,,,,,,,,,,,,,,,,,,,,,,,,,,,,,,,,,,,,,,,,,,,,,,,
,,,,,,,,,653,001,CBA,2022-06-20_10h10.25.467,workingMemoryTest,2020.2.10,Win32,60,,,,,,,,,,,,,,,,,,,,,,,,,,,,,,,,,,,,,,,,,,,,,,,,,,,,,,,,,,,,,,59281,Audio/59281.mp3,59821,4.6159,0,0,0,0,0,1,5,,,,,,,,,,,,,,,,,,,,,,,,,,,,,,,,,,,,,,,,,,,,,,,,,,,,,,,,
,,,,,,,,,653,001,CBA,2022-06-20_10h10.25.467,workingMemoryTest,2020.2.10,Win32,60,,,,,,,,,,,,,,,,,,,,,,,,,,,,,,,,,,,,,,,,,,,,,,,,,,,,,,,,,,,,,,64738,Audio/64738.mp3,68738,5.2492,0,0,1,1,1,1,5,,,,,,,,,,,,,,,,,,,,,,,,,,,,,,,,,,,,,,,,,,,,,,,,,,,,,,,,
,,,,,,,,,653,001,CBA,2022-06-20_10h10.25.467,workingMemoryTest,2020.2.10,Win32,60,,,,,,,,,,,,,,,,,,,,,,,,,,,,,,,,,,,,,,,,,,,,,,,,,,,,,,,,,,,,,,,,,,,,,,,,,,,,,,,97,2.7821,1,0,0,0,0,1,2,97,Audio/97.mp3,,,,,,,,,,,,,,,,,,,,,,,,,,,,,,,,,,,,,,,
,,,,,,,,,653,001,CBA,2022-06-20_10h10.25.467,workingMemoryTest,2020.2.10,Win32,60,,,,,,,,,,,,,,,,,,,,,,,,,,,,,,,,,,,,,,,,,,,,,,,,,,,,,,,,,,,,,,,,,,,,,,,,,,,,,,,,,,,,,,,,,,0,0,0,0,1,twoWAIS.xlsx,,,,,,,,,,,,,,,,,,,,,,,,,,,,,,,,,
,,,,,,,,,653,001,CBA,2022-06-20_10h10.25.467,workingMemoryTest,2020.2.10,Win32,60,,,,,,,,,,,,,,,,,,,,,,,,,,,,,,,,,,,,,,,,,,,,,,,,,,,,,,,,,,,,,,,,,,,,,,,,,,,,,,,582,1.1161,1,0,0,0,0,1,3,582,Audio/582.mp3,,,,,,,,,,,,,,,,,,,,,,,,,,,,,,,,,,,,,,,
,,,,,,,,,653,001,CBA,2022-06-20_10h10.25.467,workingMemoryTest,2020.2.10,Win32,60,,,,,,,,,,,,,,,,,,,,,,,,,,,,,,,,,,,,,,,,,,,,,,,,,,,,,,,,,,,,,,,,,,,,,,,,,,,,,,,,,,,,,,,,,,0,1,1,1,1,threeWAIS.xlsx,,,,,,,,,,,,,,,,,,,,,,,,,,,,,,,,,
,,,,,,,,,653,001,CBA,2022-06-20_10h10.25.467,workingMemoryTest,2020.2.10,Win32,60,,,,,,,,,,,,,,,,,,,,,,,,,,,,,,,,,,,,,,,,,,,,,,,,,,,,,,,,,,,,,,,,,,,,,,,,,,,,,,,7826,8.0312,0,0,0,0,0,1,4,7286,Audio/7286.mp3,,,,,,,,,,,,,,,,,,,,,,,,,,,,,,,,,,,,,,,
,,,,,,,,,653,001,CBA,2022-06-20_10h10.25.467,workingMemoryTest,2020.2.10,Win32,60,,,,,,,,,,,,,,,,,,,,,,,,,,,,,,,,,,,,,,,,,,,,,,,,,,,,,,,,,,,,,,,,,,,,,,,,,,,,,,,68349,4.8986,0,0,1,1,1,1,4,6439,Audio/6439.mp3,,,,,,,,,,,,,,,,,,,,,,,,,,,,,,,,,,,,,,,
,,,,,,,,,653,001,CBA,2022-06-20_10h10.25.467,workingMemoryTest,2020.2.10,Win32,60,,,,,,,,,,,,,,,,,,,,,,,,,,,,,,,,,,,,,,,,,,,,,,,,,,,,,,,,,,,,,,,,,,,,,,,,,,,,,,,,,,,,,,,,,,,,,,,,0,0,0,0,1,,,,,,,,,,,,,,,,,,,,,,,,,,,,
,,,,,,,,,653,001,CBA,2022-06-20_10h10.25.467,workingMemoryTest,2020.2.10,Win32,60,,,,,,,,,,,,,,,,,,,,,,,,,,,,,,,,,,,,,,,,,,,,,0,1,1,1,1,0,1,0,,,,,,,,,,,,,,,,,,,,,,,,,,,,,,,,,,,,,,,,,,,,,,,,,,,,,,,,,,,,,,,,,,,,,,,,,,,,
,,,,,,,,,653,001,CBA,2022-06-20_10h10.25.467,workingMemoryTest,2020.2.10,Win32,60,,,,,,,,,,,,,,,,,,,,,,,,,,,,,,,,,,,,,,,,,,,,,,,,,,,,,,,,,,,,,,,,,,,,,,,,,,,,,,,,,,,,,,,,,,,,,,,,,,,,,50,3.8655,1,0,0,0,1,1,5 x 10 =,NA,practiceQ,50,,,,,,,,,,,,,,,,
,,,,,,,,,653,001,CBA,2022-06-20_10h10.25.467,workingMemoryTest,2020.2.10,Win32,60,,,,,,,,,,,,,,,,,,,,,,,,,,,,,,,,,,,,,,,,,,,,,,,,,,,,,,,,,,,,,,,,,,,,,,,,,,,,,,,,,,,,,,,,,,,,,,,,,,,,,7,1.3997,1,0,1,1,0,1,1 x 7 =,NA,practiceQ,7,,,,,,,,,,,,,,,,
,,,,,,,,,653,001,CBA,2022-06-20_10h10.25.467,workingMemoryTest,2020.2.10,Win32,60,,,,,,,,,,,,,,,,,,,,,,,,,,,,,,,,,,,,,,,,,,,,,,,,,,,,,,,,,,,,,,,,,,,,,,,,,,,,,,,,,,,,,,,,,,,,,,,,,,,,,33,1.4664,1,0,2,2,2,1,3 x 11 =,NA,practiceQ,33,,,,,,,,,,,,,,,,
,,,,,,,,,653,001,CBA,2022-06-20_10h10.25.467,workingMemoryTest,2020.2.10,Win32,60,,,,,,,,,,,,,,,,,,,,,,,,,,,,,,,,,,,,,,,,,,,,,,,,,,,,,,,,,,,,,,,,,,,,,,,,,,,,,,,,,,,,,,,,,,,,,,,,,,,,,42,2.3496,1,,,,,,6 x 7 =,smallFirst,largeProd,42,0,0,0,23,1,,,,,,,,,,,
,,,,,,,,,653,001,CBA,2022-06-20_10h10.25.467,workingMemoryTest,2020.2.10,Win32,60,,,,,,,,,,,,,,,,,,,,,,,,,,,,,,,,,,,,,,,,,,,,,,,,,,,,,,,,,,,,,,,,,,,,,,,,,,,,,,,,,,,,,,,,,,,,,,,,,,,,,16,1.3996,1,,,,,,4 x 4 =,tie,smallProd,16,0,1,1,28,1,,,,,,,,,,,
,,,,,,,,,653,001,CBA,2022-06-20_10h10.25.467,workingMemoryTest,2020.2.10,Win32,60,,,,,,,,,,,,,,,,,,,,,,,,,,,,,,,,,,,,,,,,,,,,,,,,,,,,,,,,,,,,,,,,,,,,,,,,,,,,,,,,,,,,,,,,,,,,,,,,,,,,,18,2.1655,1,,,,,,3 x 6 =,smallFirst,smallProd,18,0,2,2,17,1,,,,,,,,,,,
,,,,,,,,,653,001,CBA,2022-06-20_10h10.25.467,workingMemoryTest,2020.2.10,Win32,60,,,,,,,,,,,,,,,,,,,,,,,,,,,,,,,,,,,,,,,,,,,,,,,,,,,,,,,,,,,,,,,,,,,,,,,,,,,,,,,,,,,,,,,,,,,,,,,,,,,,,64,1.5496,1,,,,,,8 x 8 =,tie,largeProd,64,0,3,3,29,1,,,,,,,,,,,
,,,,,,,,,653,001,CBA,2022-06-20_10h10.25.467,workingMemoryTest,2020.2.10,Win32,60,,,,,,,,,,,,,,,,,,,,,,,,,,,,,,,,,,,,,,,,,,,,,,,,,,,,,,,,,,,,,,,,,,,,,,,,,,,,,,,,,,,,,,,,,,,,,,,,,,,,,63,2.1329,1,,,,,,7 x 9 =,smallFirst,largeProd,63,0,4,4,26,1,,,,,,,,,,,
,,,,,,,,,653,001,CBA,2022-06-20_10h10.25.467,workingMemoryTest,2020.2.10,Win32,60,,,,,,,,,,,,,,,,,,,,,,,,,,,,,,,,,,,,,,,,,,,,,,,,,,,,,,,,,,,,,,,,,,,,,,,,,,,,,,,,,,,,,,,,,,,,,,,,,,,,,15,1.5492,1,,,,,,5 x 3 =,largeFirst,smallProd,15,0,5,5,1,1,,,,,,,,,,,
,,,,,,,,,653,001,CBA,2022-06-20_10h10.25.467,workingMemoryTest,2020.2.10,Win32,60,,,,,,,,,,,,,,,,,,,,,,,,,,,,,,,,,,,,,,,,,,,,,,,,,,,,,,,,,,,,,,,,,,,,,,,,,,,,,,,,,,,,,,,,,,,,,,,,,,,,,18,1.9488,1,,,,,,9 x 2 =,largeFirst,smallProd,18,0,6,6,6,1,,,,,,,,,,,
,,,,,,,,,653,001,CBA,2022-06-20_10h10.25.467,workingMemoryTest,2020.2.10,Win32,60,,,,,,,,,,,,,,,,,,,,,,,,,,,,,,,,,,,,,,,,,,,,,,,,,,,,,,,,,,,,,,,,,,,,,,,,,,,,,,,,,,,,,,,,,,,,,,,,,,,,,14,1.9833,1,,,,,,2 x 7 =,smallFirst,smallProd,14,0,7,7,18,1,,,,,,,,,,,
,,,,,,,,,653,001,CBA,2022-06-20_10h10.25.467,workingMemoryTest,2020.2.10,Win32,60,,,,,,,,,,,,,,,,,,,,,,,,,,,,,,,,,,,,,,,,,,,,,,,,,,,,,,,,,,,,,,,,,,,,,,,,,,,,,,,,,,,,,,,,,,,,,,,,,,,,,12,1.3502,1,,,,,,6 x 2 =,largeFirst,smallProd,12,0,8,8,2,1,,,,,,,,,,,
,,,,,,,,,653,001,CBA,2022-06-20_10h10.25.467,workingMemoryTest,2020.2.10,Win32,60,,,,,,,,,,,,,,,,,,,,,,,,,,,,,,,,,,,,,,,,,,,,,,,,,,,,,,,,,,,,,,,,,,,,,,,,,,,,,,,,,,,,,,,,,,,,,,,,,,,,,30,1.7662,1,,,,,,5 x 6 =,smallFirst,largeProd,30,0,9,9,27,1,,,,,,,,,,,
,,,,,,,,,653,001,CBA,2022-06-20_10h10.25.467,workingMemoryTest,2020.2.10,Win32,60,,,,,,,,,,,,,,,,,,,,,,,,,,,,,,,,,,,,,,,,,,,,,,,,,,,,,,,,,,,,,,,,,,,,,,,,,,,,,,,,,,,,,,,,,,,,,,,,,,,,,24,1.6494,1,,,,,,4 x 6 =,smallFirst,smallProd,24,0,10,10,20,1,,,,,,,,,,,
,,,,,,,,,653,001,CBA,2022-06-20_10h10.25.467,workingMemoryTest,2020.2.10,Win32,60,,,,,,,,,,,,,,,,,,,,,,,,,,,,,,,,,,,,,,,,,,,,,,,,,,,,,,,,,,,,,,,,,,,,,,,,,,,,,,,,,,,,,,,,,,,,,,,,,,,,,16,2.9159,1,,,,,,2 x 8 =,smallFirst,smallProd,16,0,11,11,19,1,,,,,,,,,,,
,,,,,,,,,653,001,CBA,2022-06-20_10h10.25.467,workingMemoryTest,2020.2.10,Win32,60,,,,,,,,,,,,,,,,,,,,,,,,,,,,,,,,,,,,,,,,,,,,,,,,,,,,,,,,,,,,,,,,,,,,,,,,,,,,,,,,,,,,,,,,,,,,,,,,,,,,,48,1.9659,1,,,,,,8 x 6 =,largeFirst,largeProd,48,0,12,12,13,1,,,,,,,,,,,
,,,,,,,,,653,001,CBA,2022-06-20_10h10.25.467,workingMemoryTest,2020.2.10,Win32,60,,,,,,,,,,,,,,,,,,,,,,,,,,,,,,,,,,,,,,,,,,,,,,,,,,,,,,,,,,,,,,,,,,,,,,,,,,,,,,,,,,,,,,,,,,,,,,,,,,,,,32,2.1321,1,,,,,,4 x 8 =,smallFirst,largeProd,32,0,13,13,22,1,,,,,,,,,,,
,,,,,,,,,653,001,CBA,2022-06-20_10h10.25.467,workingMemoryTest,2020.2.10,Win32,60,,,,,,,,,,,,,,,,,,,,,,,,,,,,,,,,,,,,,,,,,,,,,,,,,,,,,,,,,,,,,,,,,,,,,,,,,,,,,,,,,,,,,,,,,,,,,,,,,,,,,56,1.6328,1,,,,,,8 x 7 =,largeFirst,largeProd,56,0,14,14,10,1,,,,,,,,,,,
,,,,,,,,,653,001,CBA,2022-06-20_10h10.25.467,workingMemoryTest,2020.2.10,Win32,60,,,,,,,,,,,,,,,,,,,,,,,,,,,,,,,,,,,,,,,,,,,,,,,,,,,,,,,,,,,,,,,,,,,,,,,,,,,,,,,,,,,,,,,,,,,,,,,,,,,,,35,2.2829,1,,,,,,5 x 7 =,smallFirst,largeProd,35,0,15,15,25,1,,,,,,,,,,,
,,,,,,,,,653,001,CBA,2022-06-20_10h10.25.467,workingMemoryTest,2020.2.10,Win32,60,,,,,,,,,,,,,,,,,,,,,,,,,,,,,,,,,,,,,,,,,,,,,,,,,,,,,,,,,,,,,,,,,,,,,,,,,,,,,,,,,,,,,,,,,,,,,,,,,,,,,10,1.283,1,,,,,,2 x 5 =,smallFirst,smallProd,10,0,16,16,16,1,,,,,,,,,,,
,,,,,,,,,653,001,CBA,2022-06-20_10h10.25.467,workingMemoryTest,2020.2.10,Win32,60,,,,,,,,,,,,,,,,,,,,,,,,,,,,,,,,,,,,,,,,,,,,,,,,,,,,,,,,,,,,,,,,,,,,,,,,,,,,,,,,,,,,,,,,,,,,,,,,,,,,,400,2.8327,0,,,,,,8 x 5 =,largeFirst,largeProd,40,0,17,17,11,1,,,,,,,,,,,
,,,,,,,,,653,001,CBA,2022-06-20_10h10.25.467,workingMemoryTest,2020.2.10,Win32,60,,,,,,,,,,,,,,,,,,,,,,,,,,,,,,,,,,,,,,,,,,,,,,,,,,,,,,,,,,,,,,,,,,,,,,,,,,,,,,,,,,,,,,,,,,,,,,,,,,,,,12,2.4491,1,,,,,,3 x 4 =,smallFirst,smallProd,12,0,18,18,15,1,,,,,,,,,,,
,,,,,,,,,653,001,CBA,2022-06-20_10h10.25.467,workingMemoryTest,2020.2.10,Win32,60,,,,,,,,,,,,,,,,,,,,,,,,,,,,,,,,,,,,,,,,,,,,,,,,,,,,,,,,,,,,,,,,,,,,,,,,,,,,,,,,,,,,,,,,,,,,,,,,,,,,,6,2.0165,1,,,,,,2 x 3 =,smallFirst,smallProd,6,0,19,19,14,1,,,,,,,,,,,
,,,,,,,,,653,001,CBA,2022-06-20_10h10.25.467,workingMemoryTest,2020.2.10,Win32,60,,,,,,,,,,,,,,,,,,,,,,,,,,,,,,,,,,,,,,,,,,,,,,,,,,,,,,,,,,,,,,,,,,,,,,,,,,,,,,,,,,,,,,,,,,,,,,,,,,,,,54,1.9996,1,,,,,,9 x 6 =,largeFirst,largeProd,54,0,20,20,9,1,,,,,,,,,,,
,,,,,,,,,653,001,CBA,2022-06-20_10h10.25.467,workingMemoryTest,2020.2.10,Win32,60,,,,,,,,,,,,,,,,,,,,,,,,,,,,,,,,,,,,,,,,,,,,,,,,,,,,,,,,,,,,,,,,,,,,,,,,,,,,,,,,,,,,,,,,,,,,,,,,,,,,,45,2.3161,1,,,,,,5 x 9 =,smallFirst,largeProd,45,0,21,21,21,1,,,,,,,,,,,
,,,,,,,,,653,001,CBA,2022-06-20_10h10.25.467,workingMemoryTest,2020.2.10,Win32,60,,,,,,,,,,,,,,,,,,,,,,,,,,,,,,,,,,,,,,,,,,,,,,,,,,,,,,,,,,,,,,,,,,,,,,,,,,,,,,,,,,,,,,,,,,,,,,,,,,,,,8,1.4328,1,,,,,,4 x 2 =,largeFirst,smallProd,8,0,22,22,0,1,,,,,,,,,,,
,,,,,,,,,653,001,CBA,2022-06-20_10h10.25.467,workingMemoryTest,2020.2.10,Win32,60,,,,,,,,,,,,,,,,,,,,,,,,,,,,,,,,,,,,,,,,,,,,,,,,,,,,,,,,,,,,,,,,,,,,,,,,,,,,,,,,,,,,,,,,,,,,,,,,,,,,,27,2.1998,1,,,,,,3 x 9 =,smallFirst,largeProd,27,0,23,23,24,1,,,,,,,,,,,
,,,,,,,,,653,001,CBA,2022-06-20_10h10.25.467,workingMemoryTest,2020.2.10,Win32,60,,,,,,,,,,,,,,,,,,,,,,,,,,,,,,,,,,,,,,,,,,,,,,,,,,,,,,,,,,,,,,,,,,,,,,,,,,,,,,,,,,,,,,,,,,,,,,,,,,,,,36,1.9323,1,,,,,,9 x 4 =,largeFirst,largeProd,36,0,24,24,8,1,,,,,,,,,,,
,,,,,,,,,653,001,CBA,2022-06-20_10h10.25.467,workingMemoryTest,2020.2.10,Win32,60,,,,,,,,,,,,,,,,,,,,,,,,,,,,,,,,,,,,,,,,,,,,,,,,,,,,,,,,,,,,,,,,,,,,,,,,,,,,,,,,,,,,,,,,,,,,,,,,,,,,,24,1.6329,1,,,,,,8 x 3 =,largeFirst,smallProd,24,0,25,25,4,1,,,,,,,,,,,
,,,,,,,,,653,001,CBA,2022-06-20_10h10.25.467,workingMemoryTest,2020.2.10,Win32,60,,,,,,,,,,,,,,,,,,,,,,,,,,,,,,,,,,,,,,,,,,,,,,,,,,,,,,,,,,,,,,,,,,,,,,,,,,,,,,,,,,,,,,,,,,,,,,,,,,,,,72,2.216,1,,,,,,9 x 8 =,largeFirst,largeProd,72,0,26,26,12,1,,,,,,,,,,,
,,,,,,,,,653,001,CBA,2022-06-20_10h10.25.467,workingMemoryTest,2020.2.10,Win32,60,,,,,,,,,,,,,,,,,,,,,,,,,,,,,,,,,,,,,,,,,,,,,,,,,,,,,,,,,,,,,,,,,,,,,,,,,,,,,,,,,,,,,,,,,,,,,,,,,,,,,20,1.3992,1,,,,,,5 x 4 =,largeFirst,smallProd,20,0,27,27,5,1,,,,,,,,,,,
,,,,,,,,,653,001,CBA,2022-06-20_10h10.25.467,workingMemoryTest,2020.2.10,Win32,60,,,,,,,,,,,,,,,,,,,,,,,,,,,,,,,,,,,,,,,,,,,,,,,,,,,,,,,,,,,,,,,,,,,,,,,,,,,,,,,,,,,,,,,,,,,,,,,,,,,,,21,1.1663,1,,,,,,7 x 3 =,largeFirst,smallProd,21,0,28,28,3,1,,,,,,,,,,,
,,,,,,,,,653,001,CBA,2022-06-20_10h10.25.467,workingMemoryTest,2020.2.10,Win32,60,,,,,,,,,,,,,,,,,,,,,,,,,,,,,,,,,,,,,,,,,,,,,,,,,,,,,,,,,,,,,,,,,,,,,,,,,,,,,,,,,,,,,,,,,,,,,,,,,,,,,28,1.9652,1,,,,,,7 x 4 =,largeFirst,largeProd,28,0,29,29,7,1,,,,,,,,,,,
,,,,,,,,,653,001,CBA,2022-06-20_10h10.25.467,workingMemoryTest,2020.2.10,Win32,60,,,,,,,,,,,,,,,,,,,,,,,,,,,,,,,,,,,,,,,,,,,,,,,,,,,,,,,,,,,,,,,,,,,,,,,,,,,,,,,,,,,,,,,,,,,,,,,,,,,,,,,,,,,,,,,,,,,,,,0,0,0,1,1,multiplTwo.xlsx,,,,,
,,,,,,,,,653,001,CBA,2022-06-20_10h10.25.467,workingMemoryTest,2020.2.10,Win32,60,,,,,,,,,,,,,,,,,,,,,,,,,,,,,,,,,,,,,,,,,,,,,,,,,,,,,,,,,,,,,,,,,,,,,,,,,,,,,,,,,,,,,,,,,,,,,,,,,,,,,27,2.1663,1,,,,,,9 x 3 =,largeFirst,largeProd,27,0,0,0,7,1,,,,,,,,,,,
,,,,,,,,,653,001,CBA,2022-06-20_10h10.25.467,workingMemoryTest,2020.2.10,Win32,60,,,,,,,,,,,,,,,,,,,,,,,,,,,,,,,,,,,,,,,,,,,,,,,,,,,,,,,,,,,,,,,,,,,,,,,,,,,,,,,,,,,,,,,,,,,,,,,,,,,,,3,1.2995,0,,,,,,8 x 4 =,largeFirst,largeProd,32,0,1,1,8,1,,,,,,,,,,,
,,,,,,,,,653,001,CBA,2022-06-20_10h10.25.467,workingMemoryTest,2020.2.10,Win32,60,,,,,,,,,,,,,,,,,,,,,,,,,,,,,,,,,,,,,,,,,,,,,,,,,,,,,,,,,,,,,,,,,,,,,,,,,,,,,,,,,,,,,,,,,,,,,,,,,,,,,49,1.8494,1,,,,,,7 x 7 =,tie,largeProd,49,0,2,2,29,1,,,,,,,,,,,
,,,,,,,,,653,001,CBA,2022-06-20_10h10.25.467,workingMemoryTest,2020.2.10,Win32,60,,,,,,,,,,,,,,,,,,,,,,,,,,,,,,,,,,,,,,,,,,,,,,,,,,,,,,,,,,,,,,,,,,,,,,,,,,,,,,,,,,,,,,,,,,,,,,,,,,,,,12,1.266,1,,,,,,4 x 3 =,largeFirst,smallProd,12,0,3,3,1,1,,,,,,,,,,,
,,,,,,,,,653,001,CBA,2022-06-20_10h10.25.467,workingMemoryTest,2020.2.10,Win32,60,,,,,,,,,,,,,,,,,,,,,,,,,,,,,,,,,,,,,,,,,,,,,,,,,,,,,,,,,,,,,,,,,,,,,,,,,,,,,,,,,,,,,,,,,,,,,,,,,,,,,30,3.3826,1,,,,,,6 x 5 =,largeFirst,largeProd,30,0,4,4,13,1,,,,,,,,,,,
,,,,,,,,,653,001,CBA,2022-06-20_10h10.25.467,workingMemoryTest,2020.2.10,Win32,60,,,,,,,,,,,,,,,,,,,,,,,,,,,,,,,,,,,,,,,,,,,,,,,,,,,,,,,,,,,,,,,,,,,,,,,,,,,,,,,,,,,,,,,,,,,,,,,,,,,,,45,1.4662,1,,,,,,9 x 5 =,largeFirst,largeProd,45,0,5,5,9,1,,,,,,,,,,,
,,,,,,,,,653,001,CBA,2022-06-20_10h10.25.467,workingMemoryTest,2020.2.10,Win32,60,,,,,,,,,,,,,,,,,,,,,,,,,,,,,,,,,,,,,,,,,,,,,,,,,,,,,,,,,,,,,,,,,,,,,,,,,,,,,,,,,,,,,,,,,,,,,,,,,,,,,28,2.0325,1,,,,,,4 x 7 =,smallFirst,largeProd,28,0,6,6,25,1,,,,,,,,,,,
,,,,,,,,,653,001,CBA,2022-06-20_10h10.25.467,workingMemoryTest,2020.2.10,Win32,60,,,,,,,,,,,,,,,,,,,,,,,,,,,,,,,,,,,,,,,,,,,,,,,,,,,,,,,,,,,,,,,,,,,,,,,,,,,,,,,,,,,,,,,,,,,,,,,,,,,,,40,1.7159,1,,,,,,5 x 8 =,smallFirst,largeProd,40,0,7,7,27,1,,,,,,,,,,,
,,,,,,,,,653,001,CBA,2022-06-20_10h10.25.467,workingMemoryTest,2020.2.10,Win32,60,,,,,,,,,,,,,,,,,,,,,,,,,,,,,,,,,,,,,,,,,,,,,,,,,,,,,,,,,,,,,,,,,,,,,,,,,,,,,,,,,,,,,,,,,,,,,,,,,,,,,18,1.4991,1,,,,,,2 x 9 =,smallFirst,smallProd,18,0,8,8,18,1,,,,,,,,,,,
,,,,,,,,,653,001,CBA,2022-06-20_10h10.25.467,workingMemoryTest,2020.2.10,Win32,60,,,,,,,,,,,,,,,,,,,,,,,,,,,,,,,,,,,,,,,,,,,,,,,,,,,,,,,,,,,,,,,,,,,,,,,,,,,,,,,,,,,,,,,,,,,,,,,,,,,,,16,1.6662,1,,,,,,8 x 2 =,largeFirst,smallProd,16,0,9,9,5,1,,,,,,,,,,,
,,,,,,,,,653,001,CBA,2022-06-20_10h10.25.467,workingMemoryTest,2020.2.10,Win32,60,,,,,,,,,,,,,,,,,,,,,,,,,,,,,,,,,,,,,,,,,,,,,,,,,,,,,,,,,,,,,,,,,,,,,,,,,,,,,,,,,,,,,,,,,,,,,,,,,,,,,15,1.6829,1,,,,,,3 x 5 =,smallFirst,smallProd,15,0,10,10,19,1,,,,,,,,,,,
,,,,,,,,,653,001,CBA,2022-06-20_10h10.25.467,workingMemoryTest,2020.2.10,Win32,60,,,,,,,,,,,,,,,,,,,,,,,,,,,,,,,,,,,,,,,,,,,,,,,,,,,,,,,,,,,,,,,,,,,,,,,,,,,,,,,,,,,,,,,,,,,,,,,,,,,,,24,2.483,1,,,,,,3 x 8 =,smallFirst,smallProd,24,0,11,11,15,1,,,,,,,,,,,
,,,,,,,,,653,001,CBA,2022-06-20_10h10.25.467,workingMemoryTest,2020.2.10,Win32,60,,,,,,,,,,,,,,,,,,,,,,,,,,,,,,,,,,,,,,,,,,,,,,,,,,,,,,,,,,,,,,,,,,,,,,,,,,,,,,,,,,,,,,,,,,,,,,,,,,,,,8,1.3994,1,,,,,,2 x 4 =,smallFirst,smallProd,8,0,12,12,17,1,,,,,,,,,,,
,,,,,,,,,653,001,CBA,2022-06-20_10h10.25.467,workingMemoryTest,2020.2.10,Win32,60,,,,,,,,,,,,,,,,,,,,,,,,,,,,,,,,,,,,,,,,,,,,,,,,,,,,,,,,,,,,,,,,,,,,,,,,,,,,,,,,,,,,,,,,,,,,,,,,,,,,,6,1.4833,1,,,,,,3 x 2 =,largeFirst,smallProd,6,0,13,13,0,1,,,,,,,,,,,
,,,,,,,,,653,001,CBA,2022-06-20_10h10.25.467,workingMemoryTest,2020.2.10,Win32,60,,,,,,,,,,,,,,,,,,,,,,,,,,,,,,,,,,,,,,,,,,,,,,,,,,,,,,,,,,,,,,,,,,,,,,,,,,,,,,,,,,,,,,,,,,,,,,,,,,,,,24,1.6164,1,,,,,,6 x 4 =,largeFirst,smallProd,24,0,14,14,6,1,,,,,,,,,,,
,,,,,,,,,653,001,CBA,2022-06-20_10h10.25.467,workingMemoryTest,2020.2.10,Win32,60,,,,,,,,,,,,,,,,,,,,,,,,,,,,,,,,,,,,,,,,,,,,,,,,,,,,,,,,,,,,,,,,,,,,,,,,,,,,,,,,,,,,,,,,,,,,,,,,,,,,,14,1.2333,1,,,,,,7 x 2 =,largeFirst,smallProd,14,0,15,15,4,1,,,,,,,,,,,
,,,,,,,,,653,001,CBA,2022-06-20_10h10.25.467,workingMemoryTest,2020.2.10,Win32,60,,,,,,,,,,,,,,,,,,,,,,,,,,,,,,,,,,,,,,,,,,,,,,,,,,,,,,,,,,,,,,,,,,,,,,,,,,,,,,,,,,,,,,,,,,,,,,,,,,,,,10,1.1497,1,,,,,,5 x 2 =,largeFirst,smallProd,10,0,16,16,2,1,,,,,,,,,,,
,,,,,,,,,653,001,CBA,2022-06-20_10h10.25.467,workingMemoryTest,2020.2.10,Win32,60,,,,,,,,,,,,,,,,,,,,,,,,,,,,,,,,,,,,,,,,,,,,,,,,,,,,,,,,,,,,,,,,,,,,,,,,,,,,,,,,,,,,,,,,,,,,,,,,,,,,,56,1.7664,1,,,,,,7 x 8 =,smallFirst,largeProd,56,0,17,17,23,1,,,,,,,,,,,
,,,,,,,,,653,001,CBA,2022-06-20_10h10.25.467,workingMemoryTest,2020.2.10,Win32,60,,,,,,,,,,,,,,,,,,,,,,,,,,,,,,,,,,,,,,,,,,,,,,,,,,,,,,,,,,,,,,,,,,,,,,,,,,,,,,,,,,,,,,,,,,,,,,,,,,,,,18,2.3659,1,,,,,,6 x 3 =,largeFirst,smallProd,18,0,18,18,3,1,,,,,,,,,,,
,,,,,,,,,653,001,CBA,2022-06-20_10h10.25.467,workingMemoryTest,2020.2.10,Win32,60,,,,,,,,,,,,,,,,,,,,,,,,,,,,,,,,,,,,,,,,,,,,,,,,,,,,,,,,,,,,,,,,,,,,,,,,,,,,,,,,,,,,,,,,,,,,,,,,,,,,,36,1.8329,1,,,,,,4 x 9 =,smallFirst,largeProd,36,0,19,19,26,1,,,,,,,,,,,
,,,,,,,,,653,001,CBA,2022-06-20_10h10.25.467,workingMemoryTest,2020.2.10,Win32,60,,,,,,,,,,,,,,,,,,,,,,,,,,,,,,,,,,,,,,,,,,,,,,,,,,,,,,,,,,,,,,,,,,,,,,,,,,,,,,,,,,,,,,,,,,,,,,,,,,,,,42,1.7659,1,,,,,,7 x 6 =,largeFirst,largeProd,42,0,20,20,10,1,,,,,,,,,,,
,,,,,,,,,653,001,CBA,2022-06-20_10h10.25.467,workingMemoryTest,2020.2.10,Win32,60,,,,,,,,,,,,,,,,,,,,,,,,,,,,,,,,,,,,,,,,,,,,,,,,,,,,,,,,,,,,,,,,,,,,,,,,,,,,,,,,,,,,,,,,,,,,,,,,,,,,,72,4.2651,1,,,,,,8 x 9 =,smallFirst,largeProd,72,0,21,21,24,1,,,,,,,,,,,
,,,,,,,,,653,001,CBA,2022-06-20_10h10.25.467,workingMemoryTest,2020.2.10,Win32,60,,,,,,,,,,,,,,,,,,,,,,,,,,,,,,,,,,,,,,,,,,,,,,,,,,,,,,,,,,,,,,,,,,,,,,,,,,,,,,,,,,,,,,,,,,,,,,,,,,,,,35,1.7664,1,,,,,,7 x 5 =,largeFirst,largeProd,35,0,22,22,11,1,,,,,,,,,,,
,,,,,,,,,653,001,CBA,2022-06-20_10h10.25.467,workingMemoryTest,2020.2.10,Win32,60,,,,,,,,,,,,,,,,,,,,,,,,,,,,,,,,,,,,,,,,,,,,,,,,,,,,,,,,,,,,,,,,,,,,,,,,,,,,,,,,,,,,,,,,,,,,,,,,,,,,,27,1.8827,0,,,,,,3 x 7 =,smallFirst,smallProd,21,0,23,23,14,1,,,,,,,,,,,
,,,,,,,,,653,001,CBA,2022-06-20_10h10.25.467,workingMemoryTest,2020.2.10,Win32,60,,,,,,,,,,,,,,,,,,,,,,,,,,,,,,,,,,,,,,,,,,,,,,,,,,,,,,,,,,,,,,,,,,,,,,,,,,,,,,,,,,,,,,,,,,,,,,,,,,,,,9,1.2333,1,,,,,,3 x 3 =,tie,smallProd,9,0,24,24,28,1,,,,,,,,,,,
,,,,,,,,,653,001,CBA,2022-06-20_10h10.25.467,workingMemoryTest,2020.2.10,Win32,60,,,,,,,,,,,,,,,,,,,,,,,,,,,,,,,,,,,,,,,,,,,,,,,,,,,,,,,,,,,,,,,,,,,,,,,,,,,,,,,,,,,,,,,,,,,,,,,,,,,,,20,1.6998,1,,,,,,4 x 5 =,smallFirst,smallProd,20,0,25,25,16,1,,,,,,,,,,,
,,,,,,,,,653,001,CBA,2022-06-20_10h10.25.467,workingMemoryTest,2020.2.10,Win32,60,,,,,,,,,,,,,,,,,,,,,,,,,,,,,,,,,,,,,,,,,,,,,,,,,,,,,,,,,,,,,,,,,,,,,,,,,,,,,,,,,,,,,,,,,,,,,,,,,,,,,63,2.1995,1,,,,,,9 x 7 =,largeFirst,largeProd,63,0,26,26,12,1,,,,,,,,,,,
,,,,,,,,,653,001,CBA,2022-06-20_10h10.25.467,workingMemoryTest,2020.2.10,Win32,60,,,,,,,,,,,,,,,,,,,,,,,,,,,,,,,,,,,,,,,,,,,,,,,,,,,,,,,,,,,,,,,,,,,,,,,,,,,,,,,,,,,,,,,,,,,,,,,,,,,,,48,1.9661,1,,,,,,6 x 8 =,smallFirst,largeProd,48,0,27,27,21,1,,,,,,,,,,,
,,,,,,,,,653,001,CBA,2022-06-20_10h10.25.467,workingMemoryTest,2020.2.10,Win32,60,,,,,,,,,,,,,,,,,,,,,,,,,,,,,,,,,,,,,,,,,,,,,,,,,,,,,,,,,,,,,,,,,,,,,,,,,,,,,,,,,,,,,,,,,,,,,,,,,,,,,12,1.6659,1,,,,,,2 x 6 =,smallFirst,smallProd,12,0,28,28,20,1,,,,,,,,,,,
,,,,,,,,,653,001,CBA,2022-06-20_10h10.25.467,workingMemoryTest,2020.2.10,Win32,60,,,,,,,,,,,,,,,,,,,,,,,,,,,,,,,,,,,,,,,,,,,,,,,,,,,,,,,,,,,,,,,,,,,,,,,,,,,,,,,,,,,,,,,,,,,,,,,,,,,,,54,2.083,1,,,,,,6 x 9 =,smallFirst,largeProd,54,0,29,29,22,1,,,,,,,,,,,
,,,,,,,,,653,001,CBA,2022-06-20_10h10.25.467,workingMemoryTest,2020.2.10,Win32,60,,,,,,,,,,,,,,,,,,,,,,,,,,,,,,,,,,,,,,,,,,,,,,,,,,,,,,,,,,,,,,,,,,,,,,,,,,,,,,,,,,,,,,,,,,,,,,,,,,,,,,,,,,,,,,,,,,,,,,0,1,1,0,1,multiplOne.xlsx,,,,,
,,,,,,,,,653,001,CBA,2022-06-20_10h10.25.467,workingMemoryTest,2020.2.10,Win32,60,,,,,,,,,,,,,,,,,,,,,,,,,,,,,,,,,,,,,,,,,,,,,,,,,,,,,,,,,,,,,,,,,,,,,,,,,,,,,,,,,,,,,,,,,,,,,,,,,,,,,,,,,,,,,,,,,,,,,,,,,,,,0,0,0,0,1
,,,,,,,,,653,001,CBA,2022-06-20_10h10.25.467,workingMemoryTest,2020.2.10,Win32,60,,,,,,,,,,,,,,,,,,,,,,,,,,,,,,,,,,,,,,,,,,,,,0,2,2,2,1,1,0,0,,,,,,,,,,,,,,,,,,,,,,,,,,,,,,,,,,,,,,,,,,,,,,,,,,,,,,,,,,,,,,,,,,,,,,,,,,,,
