typedNumber,typingRT,answerCorr,typingLoopPract.thisRepN,typingLoopPract.thisTrialN,typingLoopPract.thisN,typingLoopPract.thisIndex,typingLoopPract.ran,productNo,participant,session,group,date,expName,psychopyVersion,OS,frameRate,typingRTrial.thisRepN,typingRTrial.thisTrialN,typingRTrial.thisN,typingRTrial.thisIndex,typingRTrial.ran,correct,respMousePrac.x,respMousePrac.y,respMousePrac.leftButton,respMousePrac.midButton,respMousePrac.rightButton,vptLoopPrac.thisRepN,vptLoopPrac.thisTrialN,vptLoopPrac.thisN,vptLoopPrac.thisIndex,vptLoopPrac.ran,tiles,rows,cols,vptCorrect,respMouse.x,respMouse.y,respMouse.leftButton,respMouse.midButton,respMouse.rightButton,trials.thisRepN,trials.thisTrialN,trials.thisN,trials.thisIndex,trials.ran,noOfBlocks,blockDuration,conditionLoop.thisRepN,conditionLoop.thisTrialN,conditionLoop.thisN,conditionLoop.thisIndex,conditionLoop.ran,sheet,readyMsg,TaskC.thisRepN,TaskC.thisTrialN,TaskC.thisN,TaskC.thisIndex,TaskC.ran,TaskOrderCond.thisRepN,TaskOrderCond.thisTrialN,TaskOrderCond.thisN,TaskOrderCond.thisIndex,TaskOrderCond.ran,nRepsTask1,nRepsTask2,nRepsTask3,typedAudioPrac,audioPracRT,audioPrCorr,audioLoopPrac.thisRepN,audioLoopPrac.thisTrialN,audioLoopPrac.thisN,audioLoopPrac.thisIndex,audioLoopPrac.ran,audiospan,digits_audio,soundsJS,EgnerDSresponse,EgnerDSrt,EgnerDSscore,audioRTrial.thisRepN,audioRTrial.thisTrialN,audioRTrial.thisN,audioRTrial.thisIndex,audioRTrial.ran,digitSpan,audioCondLoop.thisRepN,audioCondLoop.thisTrialN,audioCondLoop.thisN,audioCondLoop.thisIndex,audioCondLoop.ran,Condition,WAISDSresponse,WAISDSrt,WAISDSscore,audioRTrialwais.thisRepN,audioRTrialwais.thisTrialN,audioRTrialwais.thisN,audioRTrialwais.thisIndex,audioRTrialwais.ran,digitSpanWAIS,digits_audioWAIS,soundsWAIS,audioCondLoopwais.thisRepN,audioCondLoopwais.thisTrialN,audioCondLoopwais.thisN,audioCondLoopwais.thisIndex,audioCondLoopwais.ran,ConditionWAIS,TaskB.thisRepN,TaskB.thisTrialN,TaskB.thisN,TaskB.thisIndex,TaskB.ran,typedAnswer,multiplyRT,multiplyCorr,multiLoopPrac.thisRepN,multiLoopPrac.thisTrialN,multiLoopPrac.thisN,multiLoopPrac.thisIndex,multiLoopPrac.ran,problem,OperandType,productType,Answer,multiRTrial.thisRepN,multiRTrial.thisTrialN,multiRTrial.thisN,multiRTrial.thisIndex,multiRTrial.ran,trials_2.thisRepN,trials_2.thisTrialN,trials_2.thisN,trials_2.thisIndex,trials_2.ran,fileee,TaskA.thisRepN,TaskA.thisTrialN,TaskA.thisN,TaskA.thisIndex,TaskA.ran
39,1.532,1,0,0,0,0,1,39,743,001,CBA,2022-01-20_00h02.47.667,workingMemoryTest,2020.2.10,MacIntel,60,,,,,,,,,,,,,,,,,,,,,,,,,,,,,,,,,,,,,,,,,,,,,,,,,,,,,,,,,,,,,,,,,,,,,,,,,,,,,,,,,,,,,,,,,,,,,,,,,,,,,,,,,,,,,,,,,,,,,,,,,,,,,,,,
41,1.6175,1,0,1,1,1,1,41,743,001,CBA,2022-01-20_00h02.47.667,workingMemoryTest,2020.2.10,MacIntel,60,,,,,,,,,,,,,,,,,,,,,,,,,,,,,,,,,,,,,,,,,,,,,,,,,,,,,,,,,,,,,,,,,,,,,,,,,,,,,,,,,,,,,,,,,,,,,,,,,,,,,,,,,,,,,,,,,,,,,,,,,,,,,,,,
59,1.3841,1,0,2,2,2,1,59,743,001,CBA,2022-01-20_00h02.47.667,workingMemoryTest,2020.2.10,MacIntel,60,,,,,,,,,,,,,,,,,,,,,,,,,,,,,,,,,,,,,,,,,,,,,,,,,,,,,,,,,,,,,,,,,,,,,,,,,,,,,,,,,,,,,,,,,,,,,,,,,,,,,,,,,,,,,,,,,,,,,,,,,,,,,,,,
56,1.099,1,,,,,,56,743,001,CBA,2022-01-20_00h02.47.667,workingMemoryTest,2020.2.10,MacIntel,60,0,0,0,24,1,,,,,,,,,,,,,,,,,,,,,,,,,,,,,,,,,,,,,,,,,,,,,,,,,,,,,,,,,,,,,,,,,,,,,,,,,,,,,,,,,,,,,,,,,,,,,,,,,,,,,,,,,,,,,,,,,,,,,,,,,,,
32,0.9168,1,,,,,,32,743,001,CBA,2022-01-20_00h02.47.667,workingMemoryTest,2020.2.10,MacIntel,60,0,1,1,15,1,,,,,,,,,,,,,,,,,,,,,,,,,,,,,,,,,,,,,,,,,,,,,,,,,,,,,,,,,,,,,,,,,,,,,,,,,,,,,,,,,,,,,,,,,,,,,,,,,,,,,,,,,,,,,,,,,,,,,,,,,,,
72,1.0484,1,,,,,,72,743,001,CBA,2022-01-20_00h02.47.667,workingMemoryTest,2020.2.10,MacIntel,60,0,2,2,27,1,,,,,,,,,,,,,,,,,,,,,,,,,,,,,,,,,,,,,,,,,,,,,,,,,,,,,,,,,,,,,,,,,,,,,,,,,,,,,,,,,,,,,,,,,,,,,,,,,,,,,,,,,,,,,,,,,,,,,,,,,,,
21,0.9834,1,,,,,,21,743,001,CBA,2022-01-20_00h02.47.667,workingMemoryTest,2020.2.10,MacIntel,60,0,3,3,10,1,,,,,,,,,,,,,,,,,,,,,,,,,,,,,,,,,,,,,,,,,,,,,,,,,,,,,,,,,,,,,,,,,,,,,,,,,,,,,,,,,,,,,,,,,,,,,,,,,,,,,,,,,,,,,,,,,,,,,,,,,,,
45,1.2515,1,,,,,,45,743,001,CBA,2022-01-20_00h02.47.667,workingMemoryTest,2020.2.10,MacIntel,60,0,4,4,20,1,,,,,,,,,,,,,,,,,,,,,,,,,,,,,,,,,,,,,,,,,,,,,,,,,,,,,,,,,,,,,,,,,,,,,,,,,,,,,,,,,,,,,,,,,,,,,,,,,,,,,,,,,,,,,,,,,,,,,,,,,,,
15,1.015,1,,,,,,15,743,001,CBA,2022-01-20_00h02.47.667,workingMemoryTest,2020.2.10,MacIntel,60,0,5,5,6,1,,,,,,,,,,,,,,,,,,,,,,,,,,,,,,,,,,,,,,,,,,,,,,,,,,,,,,,,,,,,,,,,,,,,,,,,,,,,,,,,,,,,,,,,,,,,,,,,,,,,,,,,,,,,,,,,,,,,,,,,,,,
8,1.0163,1,,,,,,8,743,001,CBA,2022-01-20_00h02.47.667,workingMemoryTest,2020.2.10,MacIntel,60,0,6,6,2,1,,,,,,,,,,,,,,,,,,,,,,,,,,,,,,,,,,,,,,,,,,,,,,,,,,,,,,,,,,,,,,,,,,,,,,,,,,,,,,,,,,,,,,,,,,,,,,,,,,,,,,,,,,,,,,,,,,,,,,,,,,,
20,0.8495,1,,,,,,20,743,001,CBA,2022-01-20_00h02.47.667,workingMemoryTest,2020.2.10,MacIntel,60,0,7,7,9,1,,,,,,,,,,,,,,,,,,,,,,,,,,,,,,,,,,,,,,,,,,,,,,,,,,,,,,,,,,,,,,,,,,,,,,,,,,,,,,,,,,,,,,,,,,,,,,,,,,,,,,,,,,,,,,,,,,,,,,,,,,,
6,1.0339,1,,,,,,6,743,001,CBA,2022-01-20_00h02.47.667,workingMemoryTest,2020.2.10,MacIntel,60,0,8,8,0,1,,,,,,,,,,,,,,,,,,,,,,,,,,,,,,,,,,,,,,,,,,,,,,,,,,,,,,,,,,,,,,,,,,,,,,,,,,,,,,,,,,,,,,,,,,,,,,,,,,,,,,,,,,,,,,,,,,,,,,,,,,,
10,0.7992,1,,,,,,10,743,001,CBA,2022-01-20_00h02.47.667,workingMemoryTest,2020.2.10,MacIntel,60,0,9,9,3,1,,,,,,,,,,,,,,,,,,,,,,,,,,,,,,,,,,,,,,,,,,,,,,,,,,,,,,,,,,,,,,,,,,,,,,,,,,,,,,,,,,,,,,,,,,,,,,,,,,,,,,,,,,,,,,,,,,,,,,,,,,,
36,1.3999,1,,,,,,36,743,001,CBA,2022-01-20_00h02.47.667,workingMemoryTest,2020.2.10,MacIntel,60,0,10,10,17,1,,,,,,,,,,,,,,,,,,,,,,,,,,,,,,,,,,,,,,,,,,,,,,,,,,,,,,,,,,,,,,,,,,,,,,,,,,,,,,,,,,,,,,,,,,,,,,,,,,,,,,,,,,,,,,,,,,,,,,,,,,,
42,1.2016,1,,,,,,42,743,001,CBA,2022-01-20_00h02.47.667,workingMemoryTest,2020.2.10,MacIntel,60,0,11,11,19,1,,,,,,,,,,,,,,,,,,,,,,,,,,,,,,,,,,,,,,,,,,,,,,,,,,,,,,,,,,,,,,,,,,,,,,,,,,,,,,,,,,,,,,,,,,,,,,,,,,,,,,,,,,,,,,,,,,,,,,,,,,,
18,0.9347,1,,,,,,18,743,001,CBA,2022-01-20_00h02.47.667,workingMemoryTest,2020.2.10,MacIntel,60,0,12,12,8,1,,,,,,,,,,,,,,,,,,,,,,,,,,,,,,,,,,,,,,,,,,,,,,,,,,,,,,,,,,,,,,,,,,,,,,,,,,,,,,,,,,,,,,,,,,,,,,,,,,,,,,,,,,,,,,,,,,,,,,,,,,,
63,1.183,1,,,,,,63,743,001,CBA,2022-01-20_00h02.47.667,workingMemoryTest,2020.2.10,MacIntel,60,0,13,13,25,1,,,,,,,,,,,,,,,,,,,,,,,,,,,,,,,,,,,,,,,,,,,,,,,,,,,,,,,,,,,,,,,,,,,,,,,,,,,,,,,,,,,,,,,,,,,,,,,,,,,,,,,,,,,,,,,,,,,,,,,,,,,
16,0.9843,1,,,,,,16,743,001,CBA,2022-01-20_00h02.47.667,workingMemoryTest,2020.2.10,MacIntel,60,0,14,14,7,1,,,,,,,,,,,,,,,,,,,,,,,,,,,,,,,,,,,,,,,,,,,,,,,,,,,,,,,,,,,,,,,,,,,,,,,,,,,,,,,,,,,,,,,,,,,,,,,,,,,,,,,,,,,,,,,,,,,,,,,,,,,
28,1.1354,1,,,,,,28,743,001,CBA,2022-01-20_00h02.47.667,workingMemoryTest,2020.2.10,MacIntel,60,0,15,15,13,1,,,,,,,,,,,,,,,,,,,,,,,,,,,,,,,,,,,,,,,,,,,,,,,,,,,,,,,,,,,,,,,,,,,,,,,,,,,,,,,,,,,,,,,,,,,,,,,,,,,,,,,,,,,,,,,,,,,,,,,,,,,
40,1.2501,1,,,,,,40,743,001,CBA,2022-01-20_00h02.47.667,workingMemoryTest,2020.2.10,MacIntel,60,0,16,16,18,1,,,,,,,,,,,,,,,,,,,,,,,,,,,,,,,,,,,,,,,,,,,,,,,,,,,,,,,,,,,,,,,,,,,,,,,,,,,,,,,,,,,,,,,,,,,,,,,,,,,,,,,,,,,,,,,,,,,,,,,,,,,
14,1.4819,1,,,,,,14,743,001,CBA,2022-01-20_00h02.47.667,workingMemoryTest,2020.2.10,MacIntel,60,0,17,17,5,1,,,,,,,,,,,,,,,,,,,,,,,,,,,,,,,,,,,,,,,,,,,,,,,,,,,,,,,,,,,,,,,,,,,,,,,,,,,,,,,,,,,,,,,,,,,,,,,,,,,,,,,,,,,,,,,,,,,,,,,,,,,
35,1.414,1,,,,,,35,743,001,CBA,2022-01-20_00h02.47.667,workingMemoryTest,2020.2.10,MacIntel,60,0,18,18,16,1,,,,,,,,,,,,,,,,,,,,,,,,,,,,,,,,,,,,,,,,,,,,,,,,,,,,,,,,,,,,,,,,,,,,,,,,,,,,,,,,,,,,,,,,,,,,,,,,,,,,,,,,,,,,,,,,,,,,,,,,,,,
9,1.0998,1,,,,,,9,743,001,CBA,2022-01-20_00h02.47.667,workingMemoryTest,2020.2.10,MacIntel,60,0,19,19,1,1,,,,,,,,,,,,,,,,,,,,,,,,,,,,,,,,,,,,,,,,,,,,,,,,,,,,,,,,,,,,,,,,,,,,,,,,,,,,,,,,,,,,,,,,,,,,,,,,,,,,,,,,,,,,,,,,,,,,,,,,,,,
30,1.0169,1,,,,,,30,743,001,CBA,2022-01-20_00h02.47.667,workingMemoryTest,2020.2.10,MacIntel,60,0,20,20,14,1,,,,,,,,,,,,,,,,,,,,,,,,,,,,,,,,,,,,,,,,,,,,,,,,,,,,,,,,,,,,,,,,,,,,,,,,,,,,,,,,,,,,,,,,,,,,,,,,,,,,,,,,,,,,,,,,,,,,,,,,,,,
12,0.888,1,,,,,,12,743,001,CBA,2022-01-20_00h02.47.667,workingMemoryTest,2020.2.10,MacIntel,60,0,21,21,4,1,,,,,,,,,,,,,,,,,,,,,,,,,,,,,,,,,,,,,,,,,,,,,,,,,,,,,,,,,,,,,,,,,,,,,,,,,,,,,,,,,,,,,,,,,,,,,,,,,,,,,,,,,,,,,,,,,,,,,,,,,,,
54,1.3843,1,,,,,,54,743,001,CBA,2022-01-20_00h02.47.667,workingMemoryTest,2020.2.10,MacIntel,60,0,22,22,23,1,,,,,,,,,,,,,,,,,,,,,,,,,,,,,,,,,,,,,,,,,,,,,,,,,,,,,,,,,,,,,,,,,,,,,,,,,,,,,,,,,,,,,,,,,,,,,,,,,,,,,,,,,,,,,,,,,,,,,,,,,,,
48,1.2167,1,,,,,,48,743,001,CBA,2022-01-20_00h02.47.667,workingMemoryTest,2020.2.10,MacIntel,60,0,23,23,21,1,,,,,,,,,,,,,,,,,,,,,,,,,,,,,,,,,,,,,,,,,,,,,,,,,,,,,,,,,,,,,,,,,,,,,,,,,,,,,,,,,,,,,,,,,,,,,,,,,,,,,,,,,,,,,,,,,,,,,,,,,,,
24,1.2673,1,,,,,,24,743,001,CBA,2022-01-20_00h02.47.667,workingMemoryTest,2020.2.10,MacIntel,60,0,24,24,11,1,,,,,,,,,,,,,,,,,,,,,,,,,,,,,,,,,,,,,,,,,,,,,,,,,,,,,,,,,,,,,,,,,,,,,,,,,,,,,,,,,,,,,,,,,,,,,,,,,,,,,,,,,,,,,,,,,,,,,,,,,,,
49,1.7667,1,,,,,,49,743,001,CBA,2022-01-20_00h02.47.667,workingMemoryTest,2020.2.10,MacIntel,60,0,25,25,22,1,,,,,,,,,,,,,,,,,,,,,,,,,,,,,,,,,,,,,,,,,,,,,,,,,,,,,,,,,,,,,,,,,,,,,,,,,,,,,,,,,,,,,,,,,,,,,,,,,,,,,,,,,,,,,,,,,,,,,,,,,,,
64,1.1147,1,,,,,,64,743,001,CBA,2022-01-20_00h02.47.667,workingMemoryTest,2020.2.10,MacIntel,60,0,26,26,26,1,,,,,,,,,,,,,,,,,,,,,,,,,,,,,,,,,,,,,,,,,,,,,,,,,,,,,,,,,,,,,,,,,,,,,,,,,,,,,,,,,,,,,,,,,,,,,,,,,,,,,,,,,,,,,,,,,,,,,,,,,,,
27,1.1,1,,,,,,27,743,001,CBA,2022-01-20_00h02.47.667,workingMemoryTest,2020.2.10,MacIntel,60,0,27,27,12,1,,,,,,,,,,,,,,,,,,,,,,,,,,,,,,,,,,,,,,,,,,,,,,,,,,,,,,,,,,,,,,,,,,,,,,,,,,,,,,,,,,,,,,,,,,,,,,,,,,,,,,,,,,,,,,,,,,,,,,,,,,,
,,,,,,,,,743,001,CBA,2022-01-20_00h02.47.667,workingMemoryTest,2020.2.10,MacIntel,60,,,,,,TRUE,0.022310994,-0.347969428,1,0,0,0,0,0,0,1,,3,3,,,,,,,,,,,,,,,,,,,,,,,,,,,,,,,,,,,,,,,,,,,,,,,,,,,,,,,,,,,,,,,,,,,,,,,,,,,,,,,,,,,,,,,,,,,,,,,,,,,,,,,,,,,,,
,,,,,,,,,743,001,CBA,2022-01-20_00h02.47.667,workingMemoryTest,2020.2.10,MacIntel,60,,,,,,TRUE,-0.059807197,-0.3318927,1,0,0,0,1,1,2,1,,3,3,,,,,,,,,,,,,,,,,,,,,,,,,,,,,,,,,,,,,,,,,,,,,,,,,,,,,,,,,,,,,,,,,,,,,,,,,,,,,,,,,,,,,,,,,,,,,,,,,,,,,,,,,,,,,
,,,,,,,,,743,001,CBA,2022-01-20_00h02.47.667,workingMemoryTest,2020.2.10,MacIntel,60,,,,,,TRUE,-0.01048801,-0.347456258,1,0,0,0,2,2,1,1,,3,3,,,,,,,,,,,,,,,,,,,,,,,,,,,,,,,,,,,,,,,,,,,,,,,,,,,,,,,,,,,,,,,,,,,,,,,,,,,,,,,,,,,,,,,,,,,,,,,,,,,,,,,,,,,,,
,,,,,,,,,743,001,CBA,2022-01-20_00h02.47.667,workingMemoryTest,2020.2.10,MacIntel,60,,,,,,,,,,,,,,,,,,2,2,TRUE,0.017615085,-0.351136203,1,0,0,0,0,0,0,1,2,2,,,,,,,,,,,,,,,,,,,,,,,,,,,,,,,,,,,,,,,,,,,,,,,,,,,,,,,,,,,,,,,,,,,,,,,,,,,,,,,,,,,,,,,,,,,,,,,,
,,,,,,,,,743,001,CBA,2022-01-20_00h02.47.667,workingMemoryTest,2020.2.10,MacIntel,60,,,,,,,,,,,,,,,,,,2,2,TRUE,-0.022096558,-0.350081991,1,0,0,0,1,1,1,1,2,2,,,,,,,,,,,,,,,,,,,,,,,,,,,,,,,,,,,,,,,,,,,,,,,,,,,,,,,,,,,,,,,,,,,,,,,,,,,,,,,,,,,,,,,,,,,,,,,,
,,,,,,,,,743,001,CBA,2022-01-20_00h02.47.667,workingMemoryTest,2020.2.10,MacIntel,60,,,,,,,,,,,,,,,,,,2,2,TRUE,-0.028043349,-0.35110616,1,0,0,0,2,2,2,1,2,2,,,,,,,,,,,,,,,,,,,,,,,,,,,,,,,,,,,,,,,,,,,,,,,,,,,,,,,,,,,,,,,,,,,,,,,,,,,,,,,,,,,,,,,,,,,,,,,,
,,,,,,,,,743,001,CBA,2022-01-20_00h02.47.667,workingMemoryTest,2020.2.10,MacIntel,60,,,,,,,,,,,,,,,,,,,,,,,,,,,,,,,,,0,0,0,0,1,blockTwo.xlsx,Ready for the next set? ,,,,,,,,,,,,,,,,,,,,,,,,,,,,,,,,,,,,,,,,,,,,,,,,,,,,,,,,,,,,,,,,,,,,,,,,,,,,,,,,,,,,,,,,,
,,,,,,,,,743,001,CBA,2022-01-20_00h02.47.667,workingMemoryTest,2020.2.10,MacIntel,60,,,,,,,,,,,,,,,,,,3,3,TRUE,-0.098155789,-0.342971937,1,0,0,0,0,0,0,1,3,2,,,,,,,,,,,,,,,,,,,,,,,,,,,,,,,,,,,,,,,,,,,,,,,,,,,,,,,,,,,,,,,,,,,,,,,,,,,,,,,,,,,,,,,,,,,,,,,,
,,,,,,,,,743,001,CBA,2022-01-20_00h02.47.667,workingMemoryTest,2020.2.10,MacIntel,60,,,,,,,,,,,,,,,,,,3,3,TRUE,-0.029520942,-0.323885634,1,0,0,0,1,1,1,1,3,2,,,,,,,,,,,,,,,,,,,,,,,,,,,,,,,,,,,,,,,,,,,,,,,,,,,,,,,,,,,,,,,,,,,,,,,,,,,,,,,,,,,,,,,,,,,,,,,,
,,,,,,,,,743,001,CBA,2022-01-20_00h02.47.667,workingMemoryTest,2020.2.10,MacIntel,60,,,,,,,,,,,,,,,,,,3,3,TRUE,-0.046838786,-0.356354574,1,0,0,0,2,2,2,1,3,2,,,,,,,,,,,,,,,,,,,,,,,,,,,,,,,,,,,,,,,,,,,,,,,,,,,,,,,,,,,,,,,,,,,,,,,,,,,,,,,,,,,,,,,,,,,,,,,,
,,,,,,,,,743,001,CBA,2022-01-20_00h02.47.667,workingMemoryTest,2020.2.10,MacIntel,60,,,,,,,,,,,,,,,,,,,,,,,,,,,,,,,,,0,1,1,1,1,blockThree.xlsx,Ready for the next set? ,,,,,,,,,,,,,,,,,,,,,,,,,,,,,,,,,,,,,,,,,,,,,,,,,,,,,,,,,,,,,,,,,,,,,,,,,,,,,,,,,,,,,,,,,
,,,,,,,,,743,001,CBA,2022-01-20_00h02.47.667,workingMemoryTest,2020.2.10,MacIntel,60,,,,,,,,,,,,,,,,,,3,3,TRUE,-0.027667982,-0.348562826,1,0,0,0,0,0,0,1,4,2,,,,,,,,,,,,,,,,,,,,,,,,,,,,,,,,,,,,,,,,,,,,,,,,,,,,,,,,,,,,,,,,,,,,,,,,,,,,,,,,,,,,,,,,,,,,,,,,
,,,,,,,,,743,001,CBA,2022-01-20_00h02.47.667,workingMemoryTest,2020.2.10,MacIntel,60,,,,,,,,,,,,,,,,,,3,3,TRUE,0.008061998,-0.325794406,1,0,0,0,1,1,1,1,4,2,,,,,,,,,,,,,,,,,,,,,,,,,,,,,,,,,,,,,,,,,,,,,,,,,,,,,,,,,,,,,,,,,,,,,,,,,,,,,,,,,,,,,,,,,,,,,,,,
,,,,,,,,,743,001,CBA,2022-01-20_00h02.47.667,workingMemoryTest,2020.2.10,MacIntel,60,,,,,,,,,,,,,,,,,,3,3,TRUE,0.008998006,-0.375183851,1,0,0,0,2,2,2,1,4,2,,,,,,,,,,,,,,,,,,,,,,,,,,,,,,,,,,,,,,,,,,,,,,,,,,,,,,,,,,,,,,,,,,,,,,,,,,,,,,,,,,,,,,,,,,,,,,,,
,,,,,,,,,743,001,CBA,2022-01-20_00h02.47.667,workingMemoryTest,2020.2.10,MacIntel,60,,,,,,,,,,,,,,,,,,,,,,,,,,,,,,,,,0,2,2,2,1,blockFour.xlsx,Ready for the next set? ,,,,,,,,,,,,,,,,,,,,,,,,,,,,,,,,,,,,,,,,,,,,,,,,,,,,,,,,,,,,,,,,,,,,,,,,,,,,,,,,,,,,,,,,,
,,,,,,,,,743,001,CBA,2022-01-20_00h02.47.667,workingMemoryTest,2020.2.10,MacIntel,60,,,,,,,,,,,,,,,,,,4,4,TRUE,0.022587009,-0.379394396,1,0,0,0,0,0,0,1,5,,,,,,,,,,,,,,,,,,,,,,,,,,,,,,,,,,,,,,,,,,,,,,,,,,,,,,,,,,,,,,,,,,,,,,,,,,,,,,,,,,,,,,,,,,,,,,,,,
,,,,,,,,,743,001,CBA,2022-01-20_00h02.47.667,workingMemoryTest,2020.2.10,MacIntel,60,,,,,,,,,,,,,,,,,,4,4,TRUE,-0.05975335,-0.342630547,1,0,0,0,1,1,1,1,5,,,,,,,,,,,,,,,,,,,,,,,,,,,,,,,,,,,,,,,,,,,,,,,,,,,,,,,,,,,,,,,,,,,,,,,,,,,,,,,,,,,,,,,,,,,,,,,,,
,,,,,,,,,743,001,CBA,2022-01-20_00h02.47.667,workingMemoryTest,2020.2.10,MacIntel,60,,,,,,,,,,,,,,,,,,4,4,TRUE,-0.05135966,-0.343813883,1,0,0,0,2,2,2,1,5,,,,,,,,,,,,,,,,,,,,,,,,,,,,,,,,,,,,,,,,,,,,,,,,,,,,,,,,,,,,,,,,,,,,,,,,,,,,,,,,,,,,,,,,,,,,,,,,,
,,,,,,,,,743,001,CBA,2022-01-20_00h02.47.667,workingMemoryTest,2020.2.10,MacIntel,60,,,,,,,,,,,,,,,,,,,,,,,,,,,,,,,,,0,3,3,3,1,blockFive.xlsx,Ready for the next set? ,,,,,,,,,,,,,,,,,,,,,,,,,,,,,,,,,,,,,,,,,,,,,,,,,,,,,,,,,,,,,,,,,,,,,,,,,,,,,,,,,,,,,,,,,
,,,,,,,,,743,001,CBA,2022-01-20_00h02.47.667,workingMemoryTest,2020.2.10,MacIntel,60,,,,,,,,,,,,,,,,,,4,4,TRUE,-0.00280226,-0.345224474,1,0,0,0,0,0,0,1,6,,,,,,,,,,,,,,,,,,,,,,,,,,,,,,,,,,,,,,,,,,,,,,,,,,,,,,,,,,,,,,,,,,,,,,,,,,,,,,,,,,,,,,,,,,,,,,,,,
,,,,,,,,,743,001,CBA,2022-01-20_00h02.47.667,workingMemoryTest,2020.2.10,MacIntel,60,,,,,,,,,,,,,,,,,,4,4,TRUE,-0.034650404,-0.35666843,1,0,0,0,1,1,1,1,6,,,,,,,,,,,,,,,,,,,,,,,,,,,,,,,,,,,,,,,,,,,,,,,,,,,,,,,,,,,,,,,,,,,,,,,,,,,,,,,,,,,,,,,,,,,,,,,,,
,,,,,,,,,743,001,CBA,2022-01-20_00h02.47.667,workingMemoryTest,2020.2.10,MacIntel,60,,,,,,,,,,,,,,,,,,4,4,FALSE,-0.004144694,-0.341371121,1,0,0,0,2,2,2,1,6,,,,,,,,,,,,,,,,,,,,,,,,,,,,,,,,,,,,,,,,,,,,,,,,,,,,,,,,,,,,,,,,,,,,,,,,,,,,,,,,,,,,,,,,,,,,,,,,,
,,,,,,,,,743,001,CBA,2022-01-20_00h02.47.667,workingMemoryTest,2020.2.10,MacIntel,60,,,,,,,,,,,,,,,,,,,,,,,,,,,,,,,,,0,4,4,4,1,blockSix.xlsx,Ready for the next set? ,,,,,,,,,,,,,,,,,,,,,,,,,,,,,,,,,,,,,,,,,,,,,,,,,,,,,,,,,,,,,,,,,,,,,,,,,,,,,,,,,,,,,,,,,
,,,,,,,,,743,001,CBA,2022-01-20_00h02.47.667,workingMemoryTest,2020.2.10,MacIntel,60,,,,,,,,,,,,,,,,,,4,4,TRUE,0.005312568,-0.346793755,1,0,0,0,0,0,0,1,7,,,,,,,,,,,,,,,,,,,,,,,,,,,,,,,,,,,,,,,,,,,,,,,,,,,,,,,,,,,,,,,,,,,,,,,,,,,,,,,,,,,,,,,,,,,,,,,,,
,,,,,,,,,743,001,CBA,2022-01-20_00h02.47.667,workingMemoryTest,2020.2.10,MacIntel,60,,,,,,,,,,,,,,,,,,4,4,FALSE,-0.0547897,-0.346061876,1,0,0,0,1,1,1,1,7,,,,,,,,,,,,,,,,,,,,,,,,,,,,,,,,,,,,,,,,,,,,,,,,,,,,,,,,,,,,,,,,,,,,,,,,,,,,,,,,,,,,,,,,,,,,,,,,,
,,,,,,,,,743,001,CBA,2022-01-20_00h02.47.667,workingMemoryTest,2020.2.10,MacIntel,60,,,,,,,,,,,,,,,,,,4,4,TRUE,-0.005452067,-0.363865967,1,0,0,0,2,2,2,1,7,,,,,,,,,,,,,,,,,,,,,,,,,,,,,,,,,,,,,,,,,,,,,,,,,,,,,,,,,,,,,,,,,,,,,,,,,,,,,,,,,,,,,,,,,,,,,,,,,
,,,,,,,,,743,001,CBA,2022-01-20_00h02.47.667,workingMemoryTest,2020.2.10,MacIntel,60,,,,,,,,,,,,,,,,,,,,,,,,,,,,,,,,,0,5,5,5,1,blockSeven.xlsx,Ready for the next set? ,,,,,,,,,,,,,,,,,,,,,,,,,,,,,,,,,,,,,,,,,,,,,,,,,,,,,,,,,,,,,,,,,,,,,,,,,,,,,,,,,,,,,,,,,
,,,,,,,,,743,001,CBA,2022-01-20_00h02.47.667,workingMemoryTest,2020.2.10,MacIntel,60,,,,,,,,,,,,,,,,,,4,4,FALSE,0.015904134,-0.353604329,1,0,0,0,0,0,0,1,8,,,,,,,,,,,,,,,,,,,,,,,,,,,,,,,,,,,,,,,,,,,,,,,,,,,,,,,,,,,,,,,,,,,,,,,,,,,,,,,,,,,,,,,,,,,,,,,,,
,,,,,,,,,743,001,CBA,2022-01-20_00h02.47.667,workingMemoryTest,2020.2.10,MacIntel,60,,,,,,,,,,,,,,,,,,4,4,TRUE,0.011583116,-0.349566243,1,0,0,0,1,1,1,1,8,,,,,,,,,,,,,,,,,,,,,,,,,,,,,,,,,,,,,,,,,,,,,,,,,,,,,,,,,,,,,,,,,,,,,,,,,,,,,,,,,,,,,,,,,,,,,,,,,
,,,,,,,,,743,001,CBA,2022-01-20_00h02.47.667,workingMemoryTest,2020.2.10,MacIntel,60,,,,,,,,,,,,,,,,,,4,4,FALSE,0.022769165,-0.351393365,1,0,0,0,2,2,2,1,8,,,,,,,,,,,,,,,,,,,,,,,,,,,,,,,,,,,,,,,,,,,,,,,,,,,,,,,,,,,,,,,,,,,,,,,,,,,,,,,,,,,,,,,,,,,,,,,,,
,,,,,,,,,743,001,CBA,2022-01-20_00h02.47.667,workingMemoryTest,2020.2.10,MacIntel,60,,,,,,,,,,,,,,,,,,,,,,,,,,,,,,,,,,,,,,,,0,0,0,0,1,,,,,,,,,,,,,,,,,,,,,,,,,,,,,,,,,,,,,,,,,,,,,,,,,,,,,,,,,,,,,,,,,,,,,,,,,,,,,,,,,,,,
,,,,,,,,,743,001,CBA,2022-01-20_00h02.47.667,workingMemoryTest,2020.2.10,MacIntel,60,,,,,,,,,,,,,,,,,,,,,,,,,,,,,,,,,,,,,,,,,,,,,0,0,0,0,1,0,0,1,,,,,,,,,,,,,,,,,,,,,,,,,,,,,,,,,,,,,,,,,,,,,,,,,,,,,,,,,,,,,,,,,,,,,,,,,,,,
,,,,,,,,,743,001,CBA,2022-01-20_00h02.47.667,workingMemoryTest,2020.2.10,MacIntel,60,,,,,,,,,,,,,,,,,,,,,,,,,,,,,,,,,,,,,,,,,,,,,,,,,,,,,123,1.6816,1,0,0,0,0,1,practice,123,Audio/123.mp3,,,,,,,,,,,,,,,,,,,,,,,,,,,,,,,,,,,,,,,,,,,,,,,,,,,,,,,,,,,,,,,,,
,,,,,,,,,743,001,CBA,2022-01-20_00h02.47.667,workingMemoryTest,2020.2.10,MacIntel,60,,,,,,,,,,,,,,,,,,,,,,,,,,,,,,,,,,,,,,,,,,,,,,,,,,,,,321,0.9006,1,0,1,1,1,1,practice,321,Audio/321.mp3,,,,,,,,,,,,,,,,,,,,,,,,,,,,,,,,,,,,,,,,,,,,,,,,,,,,,,,,,,,,,,,,,
,,,,,,,,,743,001,CBA,2022-01-20_00h02.47.667,workingMemoryTest,2020.2.10,MacIntel,60,,,,,,,,,,,,,,,,,,,,,,,,,,,,,,,,,,,,,,,,,,,,,,,,,,,,,911,0.7307,1,0,2,2,2,1,practice,911,Audio/911.mp3,,,,,,,,,,,,,,,,,,,,,,,,,,,,,,,,,,,,,,,,,,,,,,,,,,,,,,,,,,,,,,,,,
,,,,,,,,,743,001,CBA,2022-01-20_00h02.47.667,workingMemoryTest,2020.2.10,MacIntel,60,,,,,,,,,,,,,,,,,,,,,,,,,,,,,,,,,,,,,,,,,,,,,,,,,,,,,,,,,,,,,,46,Audio/46.mp3,46,0.9166,1,0,0,0,0,1,2,,,,,,,,,,,,,,,,,,,,,,,,,,,,,,,,,,,,,,,,,,,,,,,,,,,,,,,,
,,,,,,,,,743,001,CBA,2022-01-20_00h02.47.667,workingMemoryTest,2020.2.10,MacIntel,60,,,,,,,,,,,,,,,,,,,,,,,,,,,,,,,,,,,,,,,,,,,,,,,,,,,,,,,,,,,,,,,,,,,,,,,,,0,0,0,0,1,twoAudio.xlsx,,,,,,,,,,,,,,,,,,,,,,,,,,,,,,,,,,,,,,,,,,,,,,,,,,
,,,,,,,,,743,001,CBA,2022-01-20_00h02.47.667,workingMemoryTest,2020.2.10,MacIntel,60,,,,,,,,,,,,,,,,,,,,,,,,,,,,,,,,,,,,,,,,,,,,,,,,,,,,,,,,,,,,,,157,Audio/157.mp3,157,0.9488,1,0,0,0,0,1,3,,,,,,,,,,,,,,,,,,,,,,,,,,,,,,,,,,,,,,,,,,,,,,,,,,,,,,,,
,,,,,,,,,743,001,CBA,2022-01-20_00h02.47.667,workingMemoryTest,2020.2.10,MacIntel,60,,,,,,,,,,,,,,,,,,,,,,,,,,,,,,,,,,,,,,,,,,,,,,,,,,,,,,,,,,,,,,,,,,,,,,,,,0,1,1,1,1,threeAudio.xlsx,,,,,,,,,,,,,,,,,,,,,,,,,,,,,,,,,,,,,,,,,,,,,,,,,,
,,,,,,,,,743,001,CBA,2022-01-20_00h02.47.667,workingMemoryTest,2020.2.10,MacIntel,60,,,,,,,,,,,,,,,,,,,,,,,,,,,,,,,,,,,,,,,,,,,,,,,,,,,,,,,,,,,,,,6352,Audio/6352.mp3,6352,0.985,1,0,0,0,0,1,4,,,,,,,,,,,,,,,,,,,,,,,,,,,,,,,,,,,,,,,,,,,,,,,,,,,,,,,,
,,,,,,,,,743,001,CBA,2022-01-20_00h02.47.667,workingMemoryTest,2020.2.10,MacIntel,60,,,,,,,,,,,,,,,,,,,,,,,,,,,,,,,,,,,,,,,,,,,,,,,,,,,,,,,,,,,,,,,,,,,,,,,,,0,2,2,2,1,fourAudio.xlsx,,,,,,,,,,,,,,,,,,,,,,,,,,,,,,,,,,,,,,,,,,,,,,,,,,
,,,,,,,,,743,001,CBA,2022-01-20_00h02.47.667,workingMemoryTest,2020.2.10,MacIntel,60,,,,,,,,,,,,,,,,,,,,,,,,,,,,,,,,,,,,,,,,,,,,,,,,,,,,,,,,,,,,,,59281,Audio/59281.mp3,59281,1.2153,1,0,0,0,0,1,5,,,,,,,,,,,,,,,,,,,,,,,,,,,,,,,,,,,,,,,,,,,,,,,,,,,,,,,,
,,,,,,,,,743,001,CBA,2022-01-20_00h02.47.667,workingMemoryTest,2020.2.10,MacIntel,60,,,,,,,,,,,,,,,,,,,,,,,,,,,,,,,,,,,,,,,,,,,,,,,,,,,,,,,,,,,,,,,,,,,,,,,,,0,3,3,3,1,fiveAudio.xlsx,,,,,,,,,,,,,,,,,,,,,,,,,,,,,,,,,,,,,,,,,,,,,,,,,,
,,,,,,,,,743,001,CBA,2022-01-20_00h02.47.667,workingMemoryTest,2020.2.10,MacIntel,60,,,,,,,,,,,,,,,,,,,,,,,,,,,,,,,,,,,,,,,,,,,,,,,,,,,,,,,,,,,,,,396172,Audio/396172.mp3,396172,1.249,1,0,0,0,0,1,6,,,,,,,,,,,,,,,,,,,,,,,,,,,,,,,,,,,,,,,,,,,,,,,,,,,,,,,,
,,,,,,,,,743,001,CBA,2022-01-20_00h02.47.667,workingMemoryTest,2020.2.10,MacIntel,60,,,,,,,,,,,,,,,,,,,,,,,,,,,,,,,,,,,,,,,,,,,,,,,,,,,,,,,,,,,,,,,,,,,,,,,,,0,4,4,4,1,sixAudio.xlsx,,,,,,,,,,,,,,,,,,,,,,,,,,,,,,,,,,,,,,,,,,,,,,,,,,
,,,,,,,,,743,001,CBA,2022-01-20_00h02.47.667,workingMemoryTest,2020.2.10,MacIntel,60,,,,,,,,,,,,,,,,,,,,,,,,,,,,,,,,,,,,,,,,,,,,,,,,,,,,,,,,,,,,,,8241973,Audio/8241973.mp3,8241973,1.8019,1,0,0,0,0,1,7,,,,,,,,,,,,,,,,,,,,,,,,,,,,,,,,,,,,,,,,,,,,,,,,,,,,,,,,
,,,,,,,,,743,001,CBA,2022-01-20_00h02.47.667,workingMemoryTest,2020.2.10,MacIntel,60,,,,,,,,,,,,,,,,,,,,,,,,,,,,,,,,,,,,,,,,,,,,,,,,,,,,,,,,,,,,,,,,,,,,,,,,,0,5,5,5,1,sevenAudio.xlsx,,,,,,,,,,,,,,,,,,,,,,,,,,,,,,,,,,,,,,,,,,,,,,,,,,
,,,,,,,,,743,001,CBA,2022-01-20_00h02.47.667,workingMemoryTest,2020.2.10,MacIntel,60,,,,,,,,,,,,,,,,,,,,,,,,,,,,,,,,,,,,,,,,,,,,,,,,,,,,,,,,,,,,,,53827164,Audio/53827164.mp3,53827164,2.7837,1,0,0,0,0,1,8,,,,,,,,,,,,,,,,,,,,,,,,,,,,,,,,,,,,,,,,,,,,,,,,,,,,,,,,
,,,,,,,,,743,001,CBA,2022-01-20_00h02.47.667,workingMemoryTest,2020.2.10,MacIntel,60,,,,,,,,,,,,,,,,,,,,,,,,,,,,,,,,,,,,,,,,,,,,,,,,,,,,,,,,,,,,,,,,,,,,,,,,,0,6,6,6,1,eightAudio.xlsx,,,,,,,,,,,,,,,,,,,,,,,,,,,,,,,,,,,,,,,,,,,,,,,,,,
,,,,,,,,,743,001,CBA,2022-01-20_00h02.47.667,workingMemoryTest,2020.2.10,MacIntel,60,,,,,,,,,,,,,,,,,,,,,,,,,,,,,,,,,,,,,,,,,,,,,,,,,,,,,,,,,,,,,,682594316,Audio/682594316.mp3,689241356,4.6492,0,0,0,0,0,1,9,,,,,,,,,,,,,,,,,,,,,,,,,,,,,,,,,,,,,,,,,,,,,,,,,,,,,,,,
,,,,,,,,,743,001,CBA,2022-01-20_00h02.47.667,workingMemoryTest,2020.2.10,MacIntel,60,,,,,,,,,,,,,,,,,,,,,,,,,,,,,,,,,,,,,,,,,,,,,,,,,,,,,,,,,,,,,,142963758,Audio/142963758.mp3,142963758,2.9991,1,0,1,1,1,1,9,,,,,,,,,,,,,,,,,,,,,,,,,,,,,,,,,,,,,,,,,,,,,,,,,,,,,,,,
,,,,,,,,,743,001,CBA,2022-01-20_00h02.47.667,workingMemoryTest,2020.2.10,MacIntel,60,,,,,,,,,,,,,,,,,,,,,,,,,,,,,,,,,,,,,,,,,,,,,,,,,,,,,,,,,,,,,,,,,,,,,,,,,0,7,7,7,1,nineAudio.xlsx,,,,,,,,,,,,,,,,,,,,,,,,,,,,,,,,,,,,,,,,,,,,,,,,,,
,,,,,,,,,743,001,CBA,2022-01-20_00h02.47.667,workingMemoryTest,2020.2.10,MacIntel,60,,,,,,,,,,,,,,,,,,,,,,,,,,,,,,,,,,,,,,,,,,,,,,,,,,,,,,,,,,,,,,,,,,,,,,,,,,,,,,,97,2.1002,1,0,0,0,0,1,2,97,Audio/97.mp3,,,,,,,,,,,,,,,,,,,,,,,,,,,,,,,,,,,,,,,
,,,,,,,,,743,001,CBA,2022-01-20_00h02.47.667,workingMemoryTest,2020.2.10,MacIntel,60,,,,,,,,,,,,,,,,,,,,,,,,,,,,,,,,,,,,,,,,,,,,,,,,,,,,,,,,,,,,,,,,,,,,,,,,,,,,,,,,,,,,,,,,,,0,0,0,0,1,twoWAIS.xlsx,,,,,,,,,,,,,,,,,,,,,,,,,,,,,,,,,
,,,,,,,,,743,001,CBA,2022-01-20_00h02.47.667,workingMemoryTest,2020.2.10,MacIntel,60,,,,,,,,,,,,,,,,,,,,,,,,,,,,,,,,,,,,,,,,,,,,,,,,,,,,,,,,,,,,,,,,,,,,,,,,,,,,,,,582,0.6837,1,0,0,0,0,1,3,582,Audio/582.mp3,,,,,,,,,,,,,,,,,,,,,,,,,,,,,,,,,,,,,,,
,,,,,,,,,743,001,CBA,2022-01-20_00h02.47.667,workingMemoryTest,2020.2.10,MacIntel,60,,,,,,,,,,,,,,,,,,,,,,,,,,,,,,,,,,,,,,,,,,,,,,,,,,,,,,,,,,,,,,,,,,,,,,,,,,,,,,,,,,,,,,,,,,0,1,1,1,1,threeWAIS.xlsx,,,,,,,,,,,,,,,,,,,,,,,,,,,,,,,,,
,,,,,,,,,743,001,CBA,2022-01-20_00h02.47.667,workingMemoryTest,2020.2.10,MacIntel,60,,,,,,,,,,,,,,,,,,,,,,,,,,,,,,,,,,,,,,,,,,,,,,,,,,,,,,,,,,,,,,,,,,,,,,,,,,,,,,,7286,1.1832,1,0,0,0,0,1,4,7286,Audio/7286.mp3,,,,,,,,,,,,,,,,,,,,,,,,,,,,,,,,,,,,,,,
,,,,,,,,,743,001,CBA,2022-01-20_00h02.47.667,workingMemoryTest,2020.2.10,MacIntel,60,,,,,,,,,,,,,,,,,,,,,,,,,,,,,,,,,,,,,,,,,,,,,,,,,,,,,,,,,,,,,,,,,,,,,,,,,,,,,,,,,,,,,,,,,,0,2,2,2,1,fourWAIS.xlsx,,,,,,,,,,,,,,,,,,,,,,,,,,,,,,,,,
,,,,,,,,,743,001,CBA,2022-01-20_00h02.47.667,workingMemoryTest,2020.2.10,MacIntel,60,,,,,,,,,,,,,,,,,,,,,,,,,,,,,,,,,,,,,,,,,,,,,,,,,,,,,,,,,,,,,,,,,,,,,,,,,,,,,,,42731,1.148,1,0,0,0,0,1,5,42731,Audio/42731.mp3,,,,,,,,,,,,,,,,,,,,,,,,,,,,,,,,,,,,,,,
,,,,,,,,,743,001,CBA,2022-01-20_00h02.47.667,workingMemoryTest,2020.2.10,MacIntel,60,,,,,,,,,,,,,,,,,,,,,,,,,,,,,,,,,,,,,,,,,,,,,,,,,,,,,,,,,,,,,,,,,,,,,,,,,,,,,,,,,,,,,,,,,,0,3,3,3,1,fiveWAIS.xlsx,,,,,,,,,,,,,,,,,,,,,,,,,,,,,,,,,
,,,,,,,,,743,001,CBA,2022-01-20_00h02.47.667,workingMemoryTest,2020.2.10,MacIntel,60,,,,,,,,,,,,,,,,,,,,,,,,,,,,,,,,,,,,,,,,,,,,,,,,,,,,,,,,,,,,,,,,,,,,,,,,,,,,,,,392487,1.7518,1,0,0,0,0,1,6,392487,Audio/392487.mp3,,,,,,,,,,,,,,,,,,,,,,,,,,,,,,,,,,,,,,,
,,,,,,,,,743,001,CBA,2022-01-20_00h02.47.667,workingMemoryTest,2020.2.10,MacIntel,60,,,,,,,,,,,,,,,,,,,,,,,,,,,,,,,,,,,,,,,,,,,,,,,,,,,,,,,,,,,,,,,,,,,,,,,,,,,,,,,,,,,,,,,,,,0,4,4,4,1,sixWAIS.xlsx,,,,,,,,,,,,,,,,,,,,,,,,,,,,,,,,,
,,,,,,,,,743,001,CBA,2022-01-20_00h02.47.667,workingMemoryTest,2020.2.10,MacIntel,60,,,,,,,,,,,,,,,,,,,,,,,,,,,,,,,,,,,,,,,,,,,,,,,,,,,,,,,,,,,,,,,,,,,,,,,,,,,,,,,6947128,2.6495,0,0,0,0,0,1,7,6917428,Audio/6917428.mp3,,,,,,,,,,,,,,,,,,,,,,,,,,,,,,,,,,,,,,,
,,,,,,,,,743,001,CBA,2022-01-20_00h02.47.667,workingMemoryTest,2020.2.10,MacIntel,60,,,,,,,,,,,,,,,,,,,,,,,,,,,,,,,,,,,,,,,,,,,,,,,,,,,,,,,,,,,,,,,,,,,,,,,,,,,,,,,4179386,2.1819,1,0,1,1,1,1,7,4179386,Audio/4179386.mp3,,,,,,,,,,,,,,,,,,,,,,,,,,,,,,,,,,,,,,,
,,,,,,,,,743,001,CBA,2022-01-20_00h02.47.667,workingMemoryTest,2020.2.10,MacIntel,60,,,,,,,,,,,,,,,,,,,,,,,,,,,,,,,,,,,,,,,,,,,,,,,,,,,,,,,,,,,,,,,,,,,,,,,,,,,,,,,,,,,,,,,,,,0,5,5,5,1,sevenWAIS.xlsx,,,,,,,,,,,,,,,,,,,,,,,,,,,,,,,,,
,,,,,,,,,743,001,CBA,2022-01-20_00h02.47.667,workingMemoryTest,2020.2.10,MacIntel,60,,,,,,,,,,,,,,,,,,,,,,,,,,,,,,,,,,,,,,,,,,,,,,,,,,,,,,,,,,,,,,,,,,,,,,,,,,,,,,,38296174,2.1999,1,0,0,0,0,1,8,38296174,Audio/38296174.mp3,,,,,,,,,,,,,,,,,,,,,,,,,,,,,,,,,,,,,,,
,,,,,,,,,743,001,CBA,2022-01-20_00h02.47.667,workingMemoryTest,2020.2.10,MacIntel,60,,,,,,,,,,,,,,,,,,,,,,,,,,,,,,,,,,,,,,,,,,,,,,,,,,,,,,,,,,,,,,,,,,,,,,,,,,,,,,,,,,,,,,,,,,0,6,6,6,1,eightWAIS.xlsx,,,,,,,,,,,,,,,,,,,,,,,,,,,,,,,,,
,,,,,,,,,743,001,CBA,2022-01-20_00h02.47.667,workingMemoryTest,2020.2.10,MacIntel,60,,,,,,,,,,,,,,,,,,,,,,,,,,,,,,,,,,,,,,,,,,,,,,,,,,,,,,,,,,,,,,,,,,,,,,,,,,,,,,,271963184,2.8494,0,0,0,0,0,1,9,275863194,Audio/275863194.mp3,,,,,,,,,,,,,,,,,,,,,,,,,,,,,,,,,,,,,,,
,,,,,,,,,743,001,CBA,2022-01-20_00h02.47.667,workingMemoryTest,2020.2.10,MacIntel,60,,,,,,,,,,,,,,,,,,,,,,,,,,,,,,,,,,,,,,,,,,,,,,,,,,,,,,,,,,,,,,,,,,,,,,,,,,,,,,,713958426,3.8311,0,0,1,1,1,1,9,713942568,Audio/713942568.mp3,,,,,,,,,,,,,,,,,,,,,,,,,,,,,,,,,,,,,,,
,,,,,,,,,743,001,CBA,2022-01-20_00h02.47.667,workingMemoryTest,2020.2.10,MacIntel,60,,,,,,,,,,,,,,,,,,,,,,,,,,,,,,,,,,,,,,,,,,,,,,,,,,,,,,,,,,,,,,,,,,,,,,,,,,,,,,,,,,,,,,,,,,,,,,,,0,0,0,0,1,,,,,,,,,,,,,,,,,,,,,,,,,,,,
,,,,,,,,,743,001,CBA,2022-01-20_00h02.47.667,workingMemoryTest,2020.2.10,MacIntel,60,,,,,,,,,,,,,,,,,,,,,,,,,,,,,,,,,,,,,,,,,,,,,0,1,1,1,1,0,1,0,,,,,,,,,,,,,,,,,,,,,,,,,,,,,,,,,,,,,,,,,,,,,,,,,,,,,,,,,,,,,,,,,,,,,,,,,,,,
,,,,,,,,,743,001,CBA,2022-01-20_00h02.47.667,workingMemoryTest,2020.2.10,MacIntel,60,,,,,,,,,,,,,,,,,,,,,,,,,,,,,,,,,,,,,,,,,,,,,,,,,,,,,,,,,,,,,,,,,,,,,,,,,,,,,,,,,,,,,,,,,,,,,,,,,,,,,33,1.3647,1,0,0,0,2,1,3 x 11 =,NA,practiceQ,33,,,,,,,,,,,,,,,,
,,,,,,,,,743,001,CBA,2022-01-20_00h02.47.667,workingMemoryTest,2020.2.10,MacIntel,60,,,,,,,,,,,,,,,,,,,,,,,,,,,,,,,,,,,,,,,,,,,,,,,,,,,,,,,,,,,,,,,,,,,,,,,,,,,,,,,,,,,,,,,,,,,,,,,,,,,,,7,1.1675,1,0,1,1,0,1,1 x 7 =,NA,practiceQ,7,,,,,,,,,,,,,,,,
,,,,,,,,,743,001,CBA,2022-01-20_00h02.47.667,workingMemoryTest,2020.2.10,MacIntel,60,,,,,,,,,,,,,,,,,,,,,,,,,,,,,,,,,,,,,,,,,,,,,,,,,,,,,,,,,,,,,,,,,,,,,,,,,,,,,,,,,,,,,,,,,,,,,,,,,,,,,50,1.1672,1,0,2,2,1,1,5 x 10 =,NA,practiceQ,50,,,,,,,,,,,,,,,,
,,,,,,,,,743,001,CBA,2022-01-20_00h02.47.667,workingMemoryTest,2020.2.10,MacIntel,60,,,,,,,,,,,,,,,,,,,,,,,,,,,,,,,,,,,,,,,,,,,,,,,,,,,,,,,,,,,,,,,,,,,,,,,,,,,,,,,,,,,,,,,,,,,,,,,,,,,,,30,1.1655,1,,,,,,5 x 6 =,smallFirst,largeProd,30,0,0,0,27,1,,,,,,,,,,,
,,,,,,,,,743,001,CBA,2022-01-20_00h02.47.667,workingMemoryTest,2020.2.10,MacIntel,60,,,,,,,,,,,,,,,,,,,,,,,,,,,,,,,,,,,,,,,,,,,,,,,,,,,,,,,,,,,,,,,,,,,,,,,,,,,,,,,,,,,,,,,,,,,,,,,,,,,,,40,1.1508,1,,,,,,8 x 5 =,largeFirst,largeProd,40,0,1,1,11,1,,,,,,,,,,,
,,,,,,,,,743,001,CBA,2022-01-20_00h02.47.667,workingMemoryTest,2020.2.10,MacIntel,60,,,,,,,,,,,,,,,,,,,,,,,,,,,,,,,,,,,,,,,,,,,,,,,,,,,,,,,,,,,,,,,,,,,,,,,,,,,,,,,,,,,,,,,,,,,,,,,,,,,,,36,1.4981,1,,,,,,9 x 4 =,largeFirst,largeProd,36,0,2,2,8,1,,,,,,,,,,,
,,,,,,,,,743,001,CBA,2022-01-20_00h02.47.667,workingMemoryTest,2020.2.10,MacIntel,60,,,,,,,,,,,,,,,,,,,,,,,,,,,,,,,,,,,,,,,,,,,,,,,,,,,,,,,,,,,,,,,,,,,,,,,,,,,,,,,,,,,,,,,,,,,,,,,,,,,,,18,1.3659,1,,,,,,9 x 2 =,largeFirst,smallProd,18,0,3,3,6,1,,,,,,,,,,,
,,,,,,,,,743,001,CBA,2022-01-20_00h02.47.667,workingMemoryTest,2020.2.10,MacIntel,60,,,,,,,,,,,,,,,,,,,,,,,,,,,,,,,,,,,,,,,,,,,,,,,,,,,,,,,,,,,,,,,,,,,,,,,,,,,,,,,,,,,,,,,,,,,,,,,,,,,,,18,1.0995,1,,,,,,3 x 6 =,smallFirst,smallProd,18,0,4,4,17,1,,,,,,,,,,,
,,,,,,,,,743,001,CBA,2022-01-20_00h02.47.667,workingMemoryTest,2020.2.10,MacIntel,60,,,,,,,,,,,,,,,,,,,,,,,,,,,,,,,,,,,,,,,,,,,,,,,,,,,,,,,,,,,,,,,,,,,,,,,,,,,,,,,,,,,,,,,,,,,,,,,,,,,,,64,1.3,1,,,,,,8 x 8 =,tie,largeProd,64,0,5,5,29,1,,,,,,,,,,,
,,,,,,,,,743,001,CBA,2022-01-20_00h02.47.667,workingMemoryTest,2020.2.10,MacIntel,60,,,,,,,,,,,,,,,,,,,,,,,,,,,,,,,,,,,,,,,,,,,,,,,,,,,,,,,,,,,,,,,,,,,,,,,,,,,,,,,,,,,,,,,,,,,,,,,,,,,,,12,1.0001,1,,,,,,6 x 2 =,largeFirst,smallProd,12,0,6,6,2,1,,,,,,,,,,,
,,,,,,,,,743,001,CBA,2022-01-20_00h02.47.667,workingMemoryTest,2020.2.10,MacIntel,60,,,,,,,,,,,,,,,,,,,,,,,,,,,,,,,,,,,,,,,,,,,,,,,,,,,,,,,,,,,,,,,,,,,,,,,,,,,,,,,,,,,,,,,,,,,,,,,,,,,,,27,1.3155,1,,,,,,3 x 9 =,smallFirst,largeProd,27,0,7,7,24,1,,,,,,,,,,,
,,,,,,,,,743,001,CBA,2022-01-20_00h02.47.667,workingMemoryTest,2020.2.10,MacIntel,60,,,,,,,,,,,,,,,,,,,,,,,,,,,,,,,,,,,,,,,,,,,,,,,,,,,,,,,,,,,,,,,,,,,,,,,,,,,,,,,,,,,,,,,,,,,,,,,,,,,,,10,0.9178,1,,,,,,2 x 5 =,smallFirst,smallProd,10,0,8,8,16,1,,,,,,,,,,,
,,,,,,,,,743,001,CBA,2022-01-20_00h02.47.667,workingMemoryTest,2020.2.10,MacIntel,60,,,,,,,,,,,,,,,,,,,,,,,,,,,,,,,,,,,,,,,,,,,,,,,,,,,,,,,,,,,,,,,,,,,,,,,,,,,,,,,,,,,,,,,,,,,,,,,,,,,,,21,1.1332,1,,,,,,7 x 3 =,largeFirst,smallProd,21,0,9,9,3,1,,,,,,,,,,,
,,,,,,,,,743,001,CBA,2022-01-20_00h02.47.667,workingMemoryTest,2020.2.10,MacIntel,60,,,,,,,,,,,,,,,,,,,,,,,,,,,,,,,,,,,,,,,,,,,,,,,,,,,,,,,,,,,,,,,,,,,,,,,,,,,,,,,,,,,,,,,,,,,,,,,,,,,,,56,1.1993,1,,,,,,8 x 7 =,largeFirst,largeProd,56,0,10,10,10,1,,,,,,,,,,,
,,,,,,,,,743,001,CBA,2022-01-20_00h02.47.667,workingMemoryTest,2020.2.10,MacIntel,60,,,,,,,,,,,,,,,,,,,,,,,,,,,,,,,,,,,,,,,,,,,,,,,,,,,,,,,,,,,,,,,,,,,,,,,,,,,,,,,,,,,,,,,,,,,,,,,,,,,,,42,1.3668,1,,,,,,6 x 7 =,smallFirst,largeProd,42,0,11,11,23,1,,,,,,,,,,,
,,,,,,,,,743,001,CBA,2022-01-20_00h02.47.667,workingMemoryTest,2020.2.10,MacIntel,60,,,,,,,,,,,,,,,,,,,,,,,,,,,,,,,,,,,,,,,,,,,,,,,,,,,,,,,,,,,,,,,,,,,,,,,,,,,,,,,,,,,,,,,,,,,,,,,,,,,,,14,1.0994,1,,,,,,2 x 7 =,smallFirst,smallProd,14,0,12,12,18,1,,,,,,,,,,,
,,,,,,,,,743,001,CBA,2022-01-20_00h02.47.667,workingMemoryTest,2020.2.10,MacIntel,60,,,,,,,,,,,,,,,,,,,,,,,,,,,,,,,,,,,,,,,,,,,,,,,,,,,,,,,,,,,,,,,,,,,,,,,,,,,,,,,,,,,,,,,,,,,,,,,,,,,,,6,1.215,1,,,,,,2 x 3 =,smallFirst,smallProd,6,0,13,13,14,1,,,,,,,,,,,
,,,,,,,,,743,001,CBA,2022-01-20_00h02.47.667,workingMemoryTest,2020.2.10,MacIntel,60,,,,,,,,,,,,,,,,,,,,,,,,,,,,,,,,,,,,,,,,,,,,,,,,,,,,,,,,,,,,,,,,,,,,,,,,,,,,,,,,,,,,,,,,,,,,,,,,,,,,,48,1.4495,1,,,,,,8 x 6 =,largeFirst,largeProd,48,0,14,14,13,1,,,,,,,,,,,
,,,,,,,,,743,001,CBA,2022-01-20_00h02.47.667,workingMemoryTest,2020.2.10,MacIntel,60,,,,,,,,,,,,,,,,,,,,,,,,,,,,,,,,,,,,,,,,,,,,,,,,,,,,,,,,,,,,,,,,,,,,,,,,,,,,,,,,,,,,,,,,,,,,,,,,,,,,,45,1.3483,1,,,,,,5 x 9 =,smallFirst,largeProd,45,0,15,15,21,1,,,,,,,,,,,
,,,,,,,,,743,001,CBA,2022-01-20_00h02.47.667,workingMemoryTest,2020.2.10,MacIntel,60,,,,,,,,,,,,,,,,,,,,,,,,,,,,,,,,,,,,,,,,,,,,,,,,,,,,,,,,,,,,,,,,,,,,,,,,,,,,,,,,,,,,,,,,,,,,,,,,,,,,,54,1.2831,1,,,,,,9 x 6 =,largeFirst,largeProd,54,0,16,16,9,1,,,,,,,,,,,
,,,,,,,,,743,001,CBA,2022-01-20_00h02.47.667,workingMemoryTest,2020.2.10,MacIntel,60,,,,,,,,,,,,,,,,,,,,,,,,,,,,,,,,,,,,,,,,,,,,,,,,,,,,,,,,,,,,,,,,,,,,,,,,,,,,,,,,,,,,,,,,,,,,,,,,,,,,,15,1.3665,1,,,,,,5 x 3 =,largeFirst,smallProd,15,0,17,17,1,1,,,,,,,,,,,
,,,,,,,,,743,001,CBA,2022-01-20_00h02.47.667,workingMemoryTest,2020.2.10,MacIntel,60,,,,,,,,,,,,,,,,,,,,,,,,,,,,,,,,,,,,,,,,,,,,,,,,,,,,,,,,,,,,,,,,,,,,,,,,,,,,,,,,,,,,,,,,,,,,,,,,,,,,,72,1.4668,1,,,,,,9 x 8 =,largeFirst,largeProd,72,0,18,18,12,1,,,,,,,,,,,
,,,,,,,,,743,001,CBA,2022-01-20_00h02.47.667,workingMemoryTest,2020.2.10,MacIntel,60,,,,,,,,,,,,,,,,,,,,,,,,,,,,,,,,,,,,,,,,,,,,,,,,,,,,,,,,,,,,,,,,,,,,,,,,,,,,,,,,,,,,,,,,,,,,,,,,,,,,,35,1.3007,1,,,,,,5 x 7 =,smallFirst,largeProd,35,0,19,19,25,1,,,,,,,,,,,
,,,,,,,,,743,001,CBA,2022-01-20_00h02.47.667,workingMemoryTest,2020.2.10,MacIntel,60,,,,,,,,,,,,,,,,,,,,,,,,,,,,,,,,,,,,,,,,,,,,,,,,,,,,,,,,,,,,,,,,,,,,,,,,,,,,,,,,,,,,,,,,,,,,,,,,,,,,,16,1.133,1,,,,,,4 x 4 =,tie,smallProd,16,0,20,20,28,1,,,,,,,,,,,
,,,,,,,,,743,001,CBA,2022-01-20_00h02.47.667,workingMemoryTest,2020.2.10,MacIntel,60,,,,,,,,,,,,,,,,,,,,,,,,,,,,,,,,,,,,,,,,,,,,,,,,,,,,,,,,,,,,,,,,,,,,,,,,,,,,,,,,,,,,,,,,,,,,,,,,,,,,,20,0.9662,1,,,,,,5 x 4 =,largeFirst,smallProd,20,0,21,21,5,1,,,,,,,,,,,
,,,,,,,,,743,001,CBA,2022-01-20_00h02.47.667,workingMemoryTest,2020.2.10,MacIntel,60,,,,,,,,,,,,,,,,,,,,,,,,,,,,,,,,,,,,,,,,,,,,,,,,,,,,,,,,,,,,,,,,,,,,,,,,,,,,,,,,,,,,,,,,,,,,,,,,,,,,,32,1.3162,1,,,,,,4 x 8 =,smallFirst,largeProd,32,0,22,22,22,1,,,,,,,,,,,
,,,,,,,,,743,001,CBA,2022-01-20_00h02.47.667,workingMemoryTest,2020.2.10,MacIntel,60,,,,,,,,,,,,,,,,,,,,,,,,,,,,,,,,,,,,,,,,,,,,,,,,,,,,,,,,,,,,,,,,,,,,,,,,,,,,,,,,,,,,,,,,,,,,,,,,,,,,,16,1.1507,1,,,,,,2 x 8 =,smallFirst,smallProd,16,0,23,23,19,1,,,,,,,,,,,
,,,,,,,,,743,001,CBA,2022-01-20_00h02.47.667,workingMemoryTest,2020.2.10,MacIntel,60,,,,,,,,,,,,,,,,,,,,,,,,,,,,,,,,,,,,,,,,,,,,,,,,,,,,,,,,,,,,,,,,,,,,,,,,,,,,,,,,,,,,,,,,,,,,,,,,,,,,,63,2.8677,1,,,,,,7 x 9 =,smallFirst,largeProd,63,0,24,24,26,1,,,,,,,,,,,
,,,,,,,,,743,001,CBA,2022-01-20_00h02.47.667,workingMemoryTest,2020.2.10,MacIntel,60,,,,,,,,,,,,,,,,,,,,,,,,,,,,,,,,,,,,,,,,,,,,,,,,,,,,,,,,,,,,,,,,,,,,,,,,,,,,,,,,,,,,,,,,,,,,,,,,,,,,,8,1.4838,1,,,,,,4 x 2 =,largeFirst,smallProd,8,0,25,25,0,1,,,,,,,,,,,
,,,,,,,,,743,001,CBA,2022-01-20_00h02.47.667,workingMemoryTest,2020.2.10,MacIntel,60,,,,,,,,,,,,,,,,,,,,,,,,,,,,,,,,,,,,,,,,,,,,,,,,,,,,,,,,,,,,,,,,,,,,,,,,,,,,,,,,,,,,,,,,,,,,,,,,,,,,,24,1.233,1,,,,,,4 x 6 =,smallFirst,smallProd,24,0,26,26,20,1,,,,,,,,,,,
,,,,,,,,,743,001,CBA,2022-01-20_00h02.47.667,workingMemoryTest,2020.2.10,MacIntel,60,,,,,,,,,,,,,,,,,,,,,,,,,,,,,,,,,,,,,,,,,,,,,,,,,,,,,,,,,,,,,,,,,,,,,,,,,,,,,,,,,,,,,,,,,,,,,,,,,,,,,12,0.9997,1,,,,,,3 x 4 =,smallFirst,smallProd,12,0,27,27,15,1,,,,,,,,,,,
,,,,,,,,,743,001,CBA,2022-01-20_00h02.47.667,workingMemoryTest,2020.2.10,MacIntel,60,,,,,,,,,,,,,,,,,,,,,,,,,,,,,,,,,,,,,,,,,,,,,,,,,,,,,,,,,,,,,,,,,,,,,,,,,,,,,,,,,,,,,,,,,,,,,,,,,,,,,28,1.1334,1,,,,,,7 x 4 =,largeFirst,largeProd,28,0,28,28,7,1,,,,,,,,,,,
,,,,,,,,,743,001,CBA,2022-01-20_00h02.47.667,workingMemoryTest,2020.2.10,MacIntel,60,,,,,,,,,,,,,,,,,,,,,,,,,,,,,,,,,,,,,,,,,,,,,,,,,,,,,,,,,,,,,,,,,,,,,,,,,,,,,,,,,,,,,,,,,,,,,,,,,,,,,24,1.3005,1,,,,,,8 x 3 =,largeFirst,smallProd,24,0,29,29,4,1,,,,,,,,,,,
,,,,,,,,,743,001,CBA,2022-01-20_00h02.47.667,workingMemoryTest,2020.2.10,MacIntel,60,,,,,,,,,,,,,,,,,,,,,,,,,,,,,,,,,,,,,,,,,,,,,,,,,,,,,,,,,,,,,,,,,,,,,,,,,,,,,,,,,,,,,,,,,,,,,,,,,,,,,,,,,,,,,,,,,,,,,,0,0,0,1,1,multiplTwo.xlsx,,,,,
,,,,,,,,,743,001,CBA,2022-01-20_00h02.47.667,workingMemoryTest,2020.2.10,MacIntel,60,,,,,,,,,,,,,,,,,,,,,,,,,,,,,,,,,,,,,,,,,,,,,,,,,,,,,,,,,,,,,,,,,,,,,,,,,,,,,,,,,,,,,,,,,,,,,,,,,,,,,21,0.9498,1,,,,,,3 x 7 =,smallFirst,smallProd,21,0,0,0,14,1,,,,,,,,,,,
,,,,,,,,,743,001,CBA,2022-01-20_00h02.47.667,workingMemoryTest,2020.2.10,MacIntel,60,,,,,,,,,,,,,,,,,,,,,,,,,,,,,,,,,,,,,,,,,,,,,,,,,,,,,,,,,,,,,,,,,,,,,,,,,,,,,,,,,,,,,,,,,,,,,,,,,,,,,28,1.9496,1,,,,,,4 x 7 =,smallFirst,largeProd,28,0,1,1,25,1,,,,,,,,,,,
,,,,,,,,,743,001,CBA,2022-01-20_00h02.47.667,workingMemoryTest,2020.2.10,MacIntel,60,,,,,,,,,,,,,,,,,,,,,,,,,,,,,,,,,,,,,,,,,,,,,,,,,,,,,,,,,,,,,,,,,,,,,,,,,,,,,,,,,,,,,,,,,,,,,,,,,,,,,49,1.3323,1,,,,,,7 x 7 =,tie,largeProd,49,0,2,2,29,1,,,,,,,,,,,
,,,,,,,,,743,001,CBA,2022-01-20_00h02.47.667,workingMemoryTest,2020.2.10,MacIntel,60,,,,,,,,,,,,,,,,,,,,,,,,,,,,,,,,,,,,,,,,,,,,,,,,,,,,,,,,,,,,,,,,,,,,,,,,,,,,,,,,,,,,,,,,,,,,,,,,,,,,,32,0.9997,1,,,,,,8 x 4 =,largeFirst,largeProd,32,0,3,3,8,1,,,,,,,,,,,
,,,,,,,,,743,001,CBA,2022-01-20_00h02.47.667,workingMemoryTest,2020.2.10,MacIntel,60,,,,,,,,,,,,,,,,,,,,,,,,,,,,,,,,,,,,,,,,,,,,,,,,,,,,,,,,,,,,,,,,,,,,,,,,,,,,,,,,,,,,,,,,,,,,,,,,,,,,,30,1.2511,1,,,,,,6 x 5 =,largeFirst,largeProd,30,0,4,4,13,1,,,,,,,,,,,
,,,,,,,,,743,001,CBA,2022-01-20_00h02.47.667,workingMemoryTest,2020.2.10,MacIntel,60,,,,,,,,,,,,,,,,,,,,,,,,,,,,,,,,,,,,,,,,,,,,,,,,,,,,,,,,,,,,,,,,,,,,,,,,,,,,,,,,,,,,,,,,,,,,,,,,,,,,,63,1.3163,1,,,,,,9 x 7 =,largeFirst,largeProd,63,0,5,5,12,1,,,,,,,,,,,
,,,,,,,,,743,001,CBA,2022-01-20_00h02.47.667,workingMemoryTest,2020.2.10,MacIntel,60,,,,,,,,,,,,,,,,,,,,,,,,,,,,,,,,,,,,,,,,,,,,,,,,,,,,,,,,,,,,,,,,,,,,,,,,,,,,,,,,,,,,,,,,,,,,,,,,,,,,,48,1.5498,1,,,,,,6 x 8 =,smallFirst,largeProd,48,0,6,6,21,1,,,,,,,,,,,
,,,,,,,,,743,001,CBA,2022-01-20_00h02.47.667,workingMemoryTest,2020.2.10,MacIntel,60,,,,,,,,,,,,,,,,,,,,,,,,,,,,,,,,,,,,,,,,,,,,,,,,,,,,,,,,,,,,,,,,,,,,,,,,,,,,,,,,,,,,,,,,,,,,,,,,,,,,,8,1.2164,1,,,,,,2 x 4 =,smallFirst,smallProd,8,0,7,7,17,1,,,,,,,,,,,
,,,,,,,,,743,001,CBA,2022-01-20_00h02.47.667,workingMemoryTest,2020.2.10,MacIntel,60,,,,,,,,,,,,,,,,,,,,,,,,,,,,,,,,,,,,,,,,,,,,,,,,,,,,,,,,,,,,,,,,,,,,,,,,,,,,,,,,,,,,,,,,,,,,,,,,,,,,,24,2.0856,1,,,,,,6 x 4 =,largeFirst,smallProd,24,0,8,8,6,1,,,,,,,,,,,
,,,,,,,,,743,001,CBA,2022-01-20_00h02.47.667,workingMemoryTest,2020.2.10,MacIntel,60,,,,,,,,,,,,,,,,,,,,,,,,,,,,,,,,,,,,,,,,,,,,,,,,,,,,,,,,,,,,,,,,,,,,,,,,,,,,,,,,,,,,,,,,,,,,,,,,,,,,,54,1.6662,1,,,,,,6 x 9 =,smallFirst,largeProd,54,0,9,9,22,1,,,,,,,,,,,
,,,,,,,,,743,001,CBA,2022-01-20_00h02.47.667,workingMemoryTest,2020.2.10,MacIntel,60,,,,,,,,,,,,,,,,,,,,,,,,,,,,,,,,,,,,,,,,,,,,,,,,,,,,,,,,,,,,,,,,,,,,,,,,,,,,,,,,,,,,,,,,,,,,,,,,,,,,,18,1.1173,1,,,,,,6 x 3 =,largeFirst,smallProd,18,0,10,10,3,1,,,,,,,,,,,
,,,,,,,,,743,001,CBA,2022-01-20_00h02.47.667,workingMemoryTest,2020.2.10,MacIntel,60,,,,,,,,,,,,,,,,,,,,,,,,,,,,,,,,,,,,,,,,,,,,,,,,,,,,,,,,,,,,,,,,,,,,,,,,,,,,,,,,,,,,,,,,,,,,,,,,,,,,,40,1.0997,1,,,,,,5 x 8 =,smallFirst,largeProd,40,0,11,11,27,1,,,,,,,,,,,
,,,,,,,,,743,001,CBA,2022-01-20_00h02.47.667,workingMemoryTest,2020.2.10,MacIntel,60,,,,,,,,,,,,,,,,,,,,,,,,,,,,,,,,,,,,,,,,,,,,,,,,,,,,,,,,,,,,,,,,,,,,,,,,,,,,,,,,,,,,,,,,,,,,,,,,,,,,,12,0.9665,1,,,,,,2 x 6 =,smallFirst,smallProd,12,0,12,12,20,1,,,,,,,,,,,
,,,,,,,,,743,001,CBA,2022-01-20_00h02.47.667,workingMemoryTest,2020.2.10,MacIntel,60,,,,,,,,,,,,,,,,,,,,,,,,,,,,,,,,,,,,,,,,,,,,,,,,,,,,,,,,,,,,,,,,,,,,,,,,,,,,,,,,,,,,,,,,,,,,,,,,,,,,,9,2.1327,1,,,,,,3 x 3 =,tie,smallProd,9,0,13,13,28,1,,,,,,,,,,,
,,,,,,,,,743,001,CBA,2022-01-20_00h02.47.667,workingMemoryTest,2020.2.10,MacIntel,60,,,,,,,,,,,,,,,,,,,,,,,,,,,,,,,,,,,,,,,,,,,,,,,,,,,,,,,,,,,,,,,,,,,,,,,,,,,,,,,,,,,,,,,,,,,,,,,,,,,,,72,1.3669,1,,,,,,8 x 9 =,smallFirst,largeProd,72,0,14,14,24,1,,,,,,,,,,,
,,,,,,,,,743,001,CBA,2022-01-20_00h02.47.667,workingMemoryTest,2020.2.10,MacIntel,60,,,,,,,,,,,,,,,,,,,,,,,,,,,,,,,,,,,,,,,,,,,,,,,,,,,,,,,,,,,,,,,,,,,,,,,,,,,,,,,,,,,,,,,,,,,,,,,,,,,,,36,1.4999,1,,,,,,4 x 9 =,smallFirst,largeProd,36,0,15,15,26,1,,,,,,,,,,,
,,,,,,,,,743,001,CBA,2022-01-20_00h02.47.667,workingMemoryTest,2020.2.10,MacIntel,60,,,,,,,,,,,,,,,,,,,,,,,,,,,,,,,,,,,,,,,,,,,,,,,,,,,,,,,,,,,,,,,,,,,,,,,,,,,,,,,,,,,,,,,,,,,,,,,,,,,,,12,1.0835,1,,,,,,4 x 3 =,largeFirst,smallProd,12,0,16,16,1,1,,,,,,,,,,,
,,,,,,,,,743,001,CBA,2022-01-20_00h02.47.667,workingMemoryTest,2020.2.10,MacIntel,60,,,,,,,,,,,,,,,,,,,,,,,,,,,,,,,,,,,,,,,,,,,,,,,,,,,,,,,,,,,,,,,,,,,,,,,,,,,,,,,,,,,,,,,,,,,,,,,,,,,,,27,1.5152,1,,,,,,9 x 3 =,largeFirst,largeProd,27,0,17,17,7,1,,,,,,,,,,,
,,,,,,,,,743,001,CBA,2022-01-20_00h02.47.667,workingMemoryTest,2020.2.10,MacIntel,60,,,,,,,,,,,,,,,,,,,,,,,,,,,,,,,,,,,,,,,,,,,,,,,,,,,,,,,,,,,,,,,,,,,,,,,,,,,,,,,,,,,,,,,,,,,,,,,,,,,,,15,1.6171,1,,,,,,3 x 5 =,smallFirst,smallProd,15,0,18,18,19,1,,,,,,,,,,,
,,,,,,,,,743,001,CBA,2022-01-20_00h02.47.667,workingMemoryTest,2020.2.10,MacIntel,60,,,,,,,,,,,,,,,,,,,,,,,,,,,,,,,,,,,,,,,,,,,,,,,,,,,,,,,,,,,,,,,,,,,,,,,,,,,,,,,,,,,,,,,,,,,,,,,,,,,,,24,1.4832,1,,,,,,3 x 8 =,smallFirst,smallProd,24,0,19,19,15,1,,,,,,,,,,,
,,,,,,,,,743,001,CBA,2022-01-20_00h02.47.667,workingMemoryTest,2020.2.10,MacIntel,60,,,,,,,,,,,,,,,,,,,,,,,,,,,,,,,,,,,,,,,,,,,,,,,,,,,,,,,,,,,,,,,,,,,,,,,,,,,,,,,,,,,,,,,,,,,,,,,,,,,,,10,1.0835,1,,,,,,5 x 2 =,largeFirst,smallProd,10,0,20,20,2,1,,,,,,,,,,,
,,,,,,,,,743,001,CBA,2022-01-20_00h02.47.667,workingMemoryTest,2020.2.10,MacIntel,60,,,,,,,,,,,,,,,,,,,,,,,,,,,,,,,,,,,,,,,,,,,,,,,,,,,,,,,,,,,,,,,,,,,,,,,,,,,,,,,,,,,,,,,,,,,,,,,,,,,,,18,1.0821,1,,,,,,2 x 9 =,smallFirst,smallProd,18,0,21,21,18,1,,,,,,,,,,,
,,,,,,,,,743,001,CBA,2022-01-20_00h02.47.667,workingMemoryTest,2020.2.10,MacIntel,60,,,,,,,,,,,,,,,,,,,,,,,,,,,,,,,,,,,,,,,,,,,,,,,,,,,,,,,,,,,,,,,,,,,,,,,,,,,,,,,,,,,,,,,,,,,,,,,,,,,,,6,1.0492,1,,,,,,3 x 2 =,largeFirst,smallProd,6,0,22,22,0,1,,,,,,,,,,,
,,,,,,,,,743,001,CBA,2022-01-20_00h02.47.667,workingMemoryTest,2020.2.10,MacIntel,60,,,,,,,,,,,,,,,,,,,,,,,,,,,,,,,,,,,,,,,,,,,,,,,,,,,,,,,,,,,,,,,,,,,,,,,,,,,,,,,,,,,,,,,,,,,,,,,,,,,,,45,1.3299,1,,,,,,9 x 5 =,largeFirst,largeProd,45,0,23,23,9,1,,,,,,,,,,,
,,,,,,,,,743,001,CBA,2022-01-20_00h02.47.667,workingMemoryTest,2020.2.10,MacIntel,60,,,,,,,,,,,,,,,,,,,,,,,,,,,,,,,,,,,,,,,,,,,,,,,,,,,,,,,,,,,,,,,,,,,,,,,,,,,,,,,,,,,,,,,,,,,,,,,,,,,,,42,1.217,1,,,,,,7 x 6 =,largeFirst,largeProd,42,0,24,24,10,1,,,,,,,,,,,
,,,,,,,,,743,001,CBA,2022-01-20_00h02.47.667,workingMemoryTest,2020.2.10,MacIntel,60,,,,,,,,,,,,,,,,,,,,,,,,,,,,,,,,,,,,,,,,,,,,,,,,,,,,,,,,,,,,,,,,,,,,,,,,,,,,,,,,,,,,,,,,,,,,,,,,,,,,,56,3.5676,1,,,,,,7 x 8 =,smallFirst,largeProd,56,0,25,25,23,1,,,,,,,,,,,
,,,,,,,,,743,001,CBA,2022-01-20_00h02.47.667,workingMemoryTest,2020.2.10,MacIntel,60,,,,,,,,,,,,,,,,,,,,,,,,,,,,,,,,,,,,,,,,,,,,,,,,,,,,,,,,,,,,,,,,,,,,,,,,,,,,,,,,,,,,,,,,,,,,,,,,,,,,,35,1.2336,1,,,,,,7 x 5 =,largeFirst,largeProd,35,0,26,26,11,1,,,,,,,,,,,
,,,,,,,,,743,001,CBA,2022-01-20_00h02.47.667,workingMemoryTest,2020.2.10,MacIntel,60,,,,,,,,,,,,,,,,,,,,,,,,,,,,,,,,,,,,,,,,,,,,,,,,,,,,,,,,,,,,,,,,,,,,,,,,,,,,,,,,,,,,,,,,,,,,,,,,,,,,,14,1.0326,1,,,,,,7 x 2 =,largeFirst,smallProd,14,0,27,27,4,1,,,,,,,,,,,
,,,,,,,,,743,001,CBA,2022-01-20_00h02.47.667,workingMemoryTest,2020.2.10,MacIntel,60,,,,,,,,,,,,,,,,,,,,,,,,,,,,,,,,,,,,,,,,,,,,,,,,,,,,,,,,,,,,,,,,,,,,,,,,,,,,,,,,,,,,,,,,,,,,,,,,,,,,,16,1.0323,1,,,,,,8 x 2 =,largeFirst,smallProd,16,0,28,28,5,1,,,,,,,,,,,
,,,,,,,,,743,001,CBA,2022-01-20_00h02.47.667,workingMemoryTest,2020.2.10,MacIntel,60,,,,,,,,,,,,,,,,,,,,,,,,,,,,,,,,,,,,,,,,,,,,,,,,,,,,,,,,,,,,,,,,,,,,,,,,,,,,,,,,,,,,,,,,,,,,,,,,,,,,,20,0.9325,1,,,,,,4 x 5 =,smallFirst,smallProd,20,0,29,29,16,1,,,,,,,,,,,
,,,,,,,,,743,001,CBA,2022-01-20_00h02.47.667,workingMemoryTest,2020.2.10,MacIntel,60,,,,,,,,,,,,,,,,,,,,,,,,,,,,,,,,,,,,,,,,,,,,,,,,,,,,,,,,,,,,,,,,,,,,,,,,,,,,,,,,,,,,,,,,,,,,,,,,,,,,,,,,,,,,,,,,,,,,,,0,1,1,0,1,multiplOne.xlsx,,,,,
,,,,,,,,,743,001,CBA,2022-01-20_00h02.47.667,workingMemoryTest,2020.2.10,MacIntel,60,,,,,,,,,,,,,,,,,,,,,,,,,,,,,,,,,,,,,,,,,,,,,,,,,,,,,,,,,,,,,,,,,,,,,,,,,,,,,,,,,,,,,,,,,,,,,,,,,,,,,,,,,,,,,,,,,,,,,,,,,,,,0,0,0,0,1
,,,,,,,,,743,001,CBA,2022-01-20_00h02.47.667,workingMemoryTest,2020.2.10,MacIntel,60,,,,,,,,,,,,,,,,,,,,,,,,,,,,,,,,,,,,,,,,,,,,,0,2,2,2,1,1,0,0,,,,,,,,,,,,,,,,,,,,,,,,,,,,,,,,,,,,,,,,,,,,,,,,,,,,,,,,,,,,,,,,,,,,,,,,,,,,
