typedNumber,typingRT,answerCorr,typingLoopPract.thisRepN,typingLoopPract.thisTrialN,typingLoopPract.thisN,typingLoopPract.thisIndex,typingLoopPract.ran,productNo,participant,session,group,date,expName,psychopyVersion,OS,frameRate,typingRTrial.thisRepN,typingRTrial.thisTrialN,typingRTrial.thisN,typingRTrial.thisIndex,typingRTrial.ran,typedAudioPrac,audioPracRT,audioPrCorr,audioLoopPrac.thisRepN,audioLoopPrac.thisTrialN,audioLoopPrac.thisN,audioLoopPrac.thisIndex,audioLoopPrac.ran,audiospan,digits_audio,soundsJS,EgnerDSresponse,EgnerDSrt,EgnerDSscore,audioRTrial.thisRepN,audioRTrial.thisTrialN,audioRTrial.thisN,audioRTrial.thisIndex,audioRTrial.ran,digitSpan,audioCondLoop.thisRepN,audioCondLoop.thisTrialN,audioCondLoop.thisN,audioCondLoop.thisIndex,audioCondLoop.ran,Condition,WAISDSresponse,WAISDSrt,WAISDSscore,audioRTrialwais.thisRepN,audioRTrialwais.thisTrialN,audioRTrialwais.thisN,audioRTrialwais.thisIndex,audioRTrialwais.ran,digitSpanWAIS,digits_audioWAIS,soundsWAIS,audioCondLoopwais.thisRepN,audioCondLoopwais.thisTrialN,audioCondLoopwais.thisN,audioCondLoopwais.thisIndex,audioCondLoopwais.ran,ConditionWAIS,TaskB.thisRepN,TaskB.thisTrialN,TaskB.thisN,TaskB.thisIndex,TaskB.ran,TaskOrderCond.thisRepN,TaskOrderCond.thisTrialN,TaskOrderCond.thisN,TaskOrderCond.thisIndex,TaskOrderCond.ran,nRepsTask1,nRepsTask2,nRepsTask3,typedAnswer,multiplyRT,multiplyCorr,multiLoopPrac.thisRepN,multiLoopPrac.thisTrialN,multiLoopPrac.thisN,multiLoopPrac.thisIndex,multiLoopPrac.ran,problem,OperandType,productType,Answer,multiRTrial.thisRepN,multiRTrial.thisTrialN,multiRTrial.thisN,multiRTrial.thisIndex,multiRTrial.ran,trials_2.thisRepN,trials_2.thisTrialN,trials_2.thisN,trials_2.thisIndex,trials_2.ran,fileee,TaskA.thisRepN,TaskA.thisTrialN,TaskA.thisN,TaskA.thisIndex,TaskA.ran,correct,respMousePrac.x,respMousePrac.y,respMousePrac.leftButton,respMousePrac.midButton,respMousePrac.rightButton,vptLoopPrac.thisRepN,vptLoopPrac.thisTrialN,vptLoopPrac.thisN,vptLoopPrac.thisIndex,vptLoopPrac.ran,tiles,rows,cols,vptCorrect,respMouse.x,respMouse.y,respMouse.leftButton,respMouse.midButton,respMouse.rightButton,trials.thisRepN,trials.thisTrialN,trials.thisN,trials.thisIndex,trials.ran,noOfBlocks,blockDuration,conditionLoop.thisRepN,conditionLoop.thisTrialN,conditionLoop.thisN,conditionLoop.thisIndex,conditionLoop.ran,sheet,readyMsg,TaskC.thisRepN,TaskC.thisTrialN,TaskC.thisN,TaskC.thisIndex,TaskC.ran
41,3.0173,1,0,0,0,1,1,41,751,001,BAC,2022-01-18_21h43.44.667,workingMemoryTest,2020.2.10,Win32,60,,,,,,,,,,,,,,,,,,,,,,,,,,,,,,,,,,,,,,,,,,,,,,,,,,,,,,,,,,,,,,,,,,,,,,,,,,,,,,,,,,,,,,,,,,,,,,,,,,,,,,,,,,,,,,,,,,,,,,,,,,,,,,,,
59,1.5828,1,0,1,1,2,1,59,751,001,BAC,2022-01-18_21h43.44.667,workingMemoryTest,2020.2.10,Win32,60,,,,,,,,,,,,,,,,,,,,,,,,,,,,,,,,,,,,,,,,,,,,,,,,,,,,,,,,,,,,,,,,,,,,,,,,,,,,,,,,,,,,,,,,,,,,,,,,,,,,,,,,,,,,,,,,,,,,,,,,,,,,,,,,
39,1.0856,1,0,2,2,0,1,39,751,001,BAC,2022-01-18_21h43.44.667,workingMemoryTest,2020.2.10,Win32,60,,,,,,,,,,,,,,,,,,,,,,,,,,,,,,,,,,,,,,,,,,,,,,,,,,,,,,,,,,,,,,,,,,,,,,,,,,,,,,,,,,,,,,,,,,,,,,,,,,,,,,,,,,,,,,,,,,,,,,,,,,,,,,,,
64,1.4346,1,,,,,,64,751,001,BAC,2022-01-18_21h43.44.667,workingMemoryTest,2020.2.10,Win32,60,0,0,0,26,1,,,,,,,,,,,,,,,,,,,,,,,,,,,,,,,,,,,,,,,,,,,,,,,,,,,,,,,,,,,,,,,,,,,,,,,,,,,,,,,,,,,,,,,,,,,,,,,,,,,,,,,,,,,,,,,,,,,,,,,,,,,
9,1.0182,1,,,,,,9,751,001,BAC,2022-01-18_21h43.44.667,workingMemoryTest,2020.2.10,Win32,60,0,1,1,1,1,,,,,,,,,,,,,,,,,,,,,,,,,,,,,,,,,,,,,,,,,,,,,,,,,,,,,,,,,,,,,,,,,,,,,,,,,,,,,,,,,,,,,,,,,,,,,,,,,,,,,,,,,,,,,,,,,,,,,,,,,,,
63,1.4188,1,,,,,,63,751,001,BAC,2022-01-18_21h43.44.667,workingMemoryTest,2020.2.10,Win32,60,0,2,2,25,1,,,,,,,,,,,,,,,,,,,,,,,,,,,,,,,,,,,,,,,,,,,,,,,,,,,,,,,,,,,,,,,,,,,,,,,,,,,,,,,,,,,,,,,,,,,,,,,,,,,,,,,,,,,,,,,,,,,,,,,,,,,
40,1.4171,1,,,,,,40,751,001,BAC,2022-01-18_21h43.44.667,workingMemoryTest,2020.2.10,Win32,60,0,3,3,18,1,,,,,,,,,,,,,,,,,,,,,,,,,,,,,,,,,,,,,,,,,,,,,,,,,,,,,,,,,,,,,,,,,,,,,,,,,,,,,,,,,,,,,,,,,,,,,,,,,,,,,,,,,,,,,,,,,,,,,,,,,,,
49,1.2003,1,,,,,,49,751,001,BAC,2022-01-18_21h43.44.667,workingMemoryTest,2020.2.10,Win32,60,0,4,4,22,1,,,,,,,,,,,,,,,,,,,,,,,,,,,,,,,,,,,,,,,,,,,,,,,,,,,,,,,,,,,,,,,,,,,,,,,,,,,,,,,,,,,,,,,,,,,,,,,,,,,,,,,,,,,,,,,,,,,,,,,,,,,
45,1.1011,1,,,,,,45,751,001,BAC,2022-01-18_21h43.44.667,workingMemoryTest,2020.2.10,Win32,60,0,5,5,20,1,,,,,,,,,,,,,,,,,,,,,,,,,,,,,,,,,,,,,,,,,,,,,,,,,,,,,,,,,,,,,,,,,,,,,,,,,,,,,,,,,,,,,,,,,,,,,,,,,,,,,,,,,,,,,,,,,,,,,,,,,,,
72,1.1333,1,,,,,,72,751,001,BAC,2022-01-18_21h43.44.667,workingMemoryTest,2020.2.10,Win32,60,0,6,6,27,1,,,,,,,,,,,,,,,,,,,,,,,,,,,,,,,,,,,,,,,,,,,,,,,,,,,,,,,,,,,,,,,,,,,,,,,,,,,,,,,,,,,,,,,,,,,,,,,,,,,,,,,,,,,,,,,,,,,,,,,,,,,
18,1.0337,1,,,,,,18,751,001,BAC,2022-01-18_21h43.44.667,workingMemoryTest,2020.2.10,Win32,60,0,7,7,8,1,,,,,,,,,,,,,,,,,,,,,,,,,,,,,,,,,,,,,,,,,,,,,,,,,,,,,,,,,,,,,,,,,,,,,,,,,,,,,,,,,,,,,,,,,,,,,,,,,,,,,,,,,,,,,,,,,,,,,,,,,,,
56,1.2003,1,,,,,,56,751,001,BAC,2022-01-18_21h43.44.667,workingMemoryTest,2020.2.10,Win32,60,0,8,8,24,1,,,,,,,,,,,,,,,,,,,,,,,,,,,,,,,,,,,,,,,,,,,,,,,,,,,,,,,,,,,,,,,,,,,,,,,,,,,,,,,,,,,,,,,,,,,,,,,,,,,,,,,,,,,,,,,,,,,,,,,,,,,
21,0.9334,1,,,,,,21,751,001,BAC,2022-01-18_21h43.44.667,workingMemoryTest,2020.2.10,Win32,60,0,9,9,10,1,,,,,,,,,,,,,,,,,,,,,,,,,,,,,,,,,,,,,,,,,,,,,,,,,,,,,,,,,,,,,,,,,,,,,,,,,,,,,,,,,,,,,,,,,,,,,,,,,,,,,,,,,,,,,,,,,,,,,,,,,,,
10,0.8999,1,,,,,,10,751,001,BAC,2022-01-18_21h43.44.667,workingMemoryTest,2020.2.10,Win32,60,0,10,10,3,1,,,,,,,,,,,,,,,,,,,,,,,,,,,,,,,,,,,,,,,,,,,,,,,,,,,,,,,,,,,,,,,,,,,,,,,,,,,,,,,,,,,,,,,,,,,,,,,,,,,,,,,,,,,,,,,,,,,,,,,,,,,
54,1.0325,1,,,,,,54,751,001,BAC,2022-01-18_21h43.44.667,workingMemoryTest,2020.2.10,Win32,60,0,11,11,23,1,,,,,,,,,,,,,,,,,,,,,,,,,,,,,,,,,,,,,,,,,,,,,,,,,,,,,,,,,,,,,,,,,,,,,,,,,,,,,,,,,,,,,,,,,,,,,,,,,,,,,,,,,,,,,,,,,,,,,,,,,,,
20,0.9508,1,,,,,,20,751,001,BAC,2022-01-18_21h43.44.667,workingMemoryTest,2020.2.10,Win32,60,0,12,12,9,1,,,,,,,,,,,,,,,,,,,,,,,,,,,,,,,,,,,,,,,,,,,,,,,,,,,,,,,,,,,,,,,,,,,,,,,,,,,,,,,,,,,,,,,,,,,,,,,,,,,,,,,,,,,,,,,,,,,,,,,,,,,
28,1.0353,1,,,,,,28,751,001,BAC,2022-01-18_21h43.44.667,workingMemoryTest,2020.2.10,Win32,60,0,13,13,13,1,,,,,,,,,,,,,,,,,,,,,,,,,,,,,,,,,,,,,,,,,,,,,,,,,,,,,,,,,,,,,,,,,,,,,,,,,,,,,,,,,,,,,,,,,,,,,,,,,,,,,,,,,,,,,,,,,,,,,,,,,,,
15,1.2176,1,,,,,,15,751,001,BAC,2022-01-18_21h43.44.667,workingMemoryTest,2020.2.10,Win32,60,0,14,14,6,1,,,,,,,,,,,,,,,,,,,,,,,,,,,,,,,,,,,,,,,,,,,,,,,,,,,,,,,,,,,,,,,,,,,,,,,,,,,,,,,,,,,,,,,,,,,,,,,,,,,,,,,,,,,,,,,,,,,,,,,,,,,
12,0.8155,1,,,,,,12,751,001,BAC,2022-01-18_21h43.44.667,workingMemoryTest,2020.2.10,Win32,60,0,15,15,4,1,,,,,,,,,,,,,,,,,,,,,,,,,,,,,,,,,,,,,,,,,,,,,,,,,,,,,,,,,,,,,,,,,,,,,,,,,,,,,,,,,,,,,,,,,,,,,,,,,,,,,,,,,,,,,,,,,,,,,,,,,,,
30,1.0671,1,,,,,,30,751,001,BAC,2022-01-18_21h43.44.667,workingMemoryTest,2020.2.10,Win32,60,0,16,16,14,1,,,,,,,,,,,,,,,,,,,,,,,,,,,,,,,,,,,,,,,,,,,,,,,,,,,,,,,,,,,,,,,,,,,,,,,,,,,,,,,,,,,,,,,,,,,,,,,,,,,,,,,,,,,,,,,,,,,,,,,,,,,
24,1.0333,1,,,,,,24,751,001,BAC,2022-01-18_21h43.44.667,workingMemoryTest,2020.2.10,Win32,60,0,17,17,11,1,,,,,,,,,,,,,,,,,,,,,,,,,,,,,,,,,,,,,,,,,,,,,,,,,,,,,,,,,,,,,,,,,,,,,,,,,,,,,,,,,,,,,,,,,,,,,,,,,,,,,,,,,,,,,,,,,,,,,,,,,,,
6,0.884,1,,,,,,6,751,001,BAC,2022-01-18_21h43.44.667,workingMemoryTest,2020.2.10,Win32,60,0,18,18,0,1,,,,,,,,,,,,,,,,,,,,,,,,,,,,,,,,,,,,,,,,,,,,,,,,,,,,,,,,,,,,,,,,,,,,,,,,,,,,,,,,,,,,,,,,,,,,,,,,,,,,,,,,,,,,,,,,,,,,,,,,,,,
32,0.9673,1,,,,,,32,751,001,BAC,2022-01-18_21h43.44.667,workingMemoryTest,2020.2.10,Win32,60,0,19,19,15,1,,,,,,,,,,,,,,,,,,,,,,,,,,,,,,,,,,,,,,,,,,,,,,,,,,,,,,,,,,,,,,,,,,,,,,,,,,,,,,,,,,,,,,,,,,,,,,,,,,,,,,,,,,,,,,,,,,,,,,,,,,,
27,1.2335,1,,,,,,27,751,001,BAC,2022-01-18_21h43.44.667,workingMemoryTest,2020.2.10,Win32,60,0,20,20,12,1,,,,,,,,,,,,,,,,,,,,,,,,,,,,,,,,,,,,,,,,,,,,,,,,,,,,,,,,,,,,,,,,,,,,,,,,,,,,,,,,,,,,,,,,,,,,,,,,,,,,,,,,,,,,,,,,,,,,,,,,,,,
36,1.1337,1,,,,,,36,751,001,BAC,2022-01-18_21h43.44.667,workingMemoryTest,2020.2.10,Win32,60,0,21,21,17,1,,,,,,,,,,,,,,,,,,,,,,,,,,,,,,,,,,,,,,,,,,,,,,,,,,,,,,,,,,,,,,,,,,,,,,,,,,,,,,,,,,,,,,,,,,,,,,,,,,,,,,,,,,,,,,,,,,,,,,,,,,,
8,0.9831,1,,,,,,8,751,001,BAC,2022-01-18_21h43.44.667,workingMemoryTest,2020.2.10,Win32,60,0,22,22,2,1,,,,,,,,,,,,,,,,,,,,,,,,,,,,,,,,,,,,,,,,,,,,,,,,,,,,,,,,,,,,,,,,,,,,,,,,,,,,,,,,,,,,,,,,,,,,,,,,,,,,,,,,,,,,,,,,,,,,,,,,,,,
16,1.0662,1,,,,,,16,751,001,BAC,2022-01-18_21h43.44.667,workingMemoryTest,2020.2.10,Win32,60,0,23,23,7,1,,,,,,,,,,,,,,,,,,,,,,,,,,,,,,,,,,,,,,,,,,,,,,,,,,,,,,,,,,,,,,,,,,,,,,,,,,,,,,,,,,,,,,,,,,,,,,,,,,,,,,,,,,,,,,,,,,,,,,,,,,,
14,0.9493,1,,,,,,14,751,001,BAC,2022-01-18_21h43.44.667,workingMemoryTest,2020.2.10,Win32,60,0,24,24,5,1,,,,,,,,,,,,,,,,,,,,,,,,,,,,,,,,,,,,,,,,,,,,,,,,,,,,,,,,,,,,,,,,,,,,,,,,,,,,,,,,,,,,,,,,,,,,,,,,,,,,,,,,,,,,,,,,,,,,,,,,,,,
42,1.134,1,,,,,,42,751,001,BAC,2022-01-18_21h43.44.667,workingMemoryTest,2020.2.10,Win32,60,0,25,25,19,1,,,,,,,,,,,,,,,,,,,,,,,,,,,,,,,,,,,,,,,,,,,,,,,,,,,,,,,,,,,,,,,,,,,,,,,,,,,,,,,,,,,,,,,,,,,,,,,,,,,,,,,,,,,,,,,,,,,,,,,,,,,
38,1.2838,0,,,,,,48,751,001,BAC,2022-01-18_21h43.44.667,workingMemoryTest,2020.2.10,Win32,60,0,26,26,21,1,,,,,,,,,,,,,,,,,,,,,,,,,,,,,,,,,,,,,,,,,,,,,,,,,,,,,,,,,,,,,,,,,,,,,,,,,,,,,,,,,,,,,,,,,,,,,,,,,,,,,,,,,,,,,,,,,,,,,,,,,,,
35,1.1327,1,,,,,,35,751,001,BAC,2022-01-18_21h43.44.667,workingMemoryTest,2020.2.10,Win32,60,0,27,27,16,1,,,,,,,,,,,,,,,,,,,,,,,,,,,,,,,,,,,,,,,,,,,,,,,,,,,,,,,,,,,,,,,,,,,,,,,,,,,,,,,,,,,,,,,,,,,,,,,,,,,,,,,,,,,,,,,,,,,,,,,,,,,
,,,,,,,,,751,001,BAC,2022-01-18_21h43.44.667,workingMemoryTest,2020.2.10,Win32,60,,,,,,123,1.8511,1,0,0,0,0,1,practice,123,Audio/123.mp3,,,,,,,,,,,,,,,,,,,,,,,,,,,,,,,,,,,,,,,,,,,,,,,,,,,,,,,,,,,,,,,,,,,,,,,,,,,,,,,,,,,,,,,,,,,,,,,,,,,,,,,,,,,,,,,,
,,,,,,,,,751,001,BAC,2022-01-18_21h43.44.667,workingMemoryTest,2020.2.10,Win32,60,,,,,,321,1.0008,1,0,1,1,1,1,practice,321,Audio/321.mp3,,,,,,,,,,,,,,,,,,,,,,,,,,,,,,,,,,,,,,,,,,,,,,,,,,,,,,,,,,,,,,,,,,,,,,,,,,,,,,,,,,,,,,,,,,,,,,,,,,,,,,,,,,,,,,,,
,,,,,,,,,751,001,BAC,2022-01-18_21h43.44.667,workingMemoryTest,2020.2.10,Win32,60,,,,,,911,1.2826,1,0,2,2,2,1,practice,911,Audio/911.mp3,,,,,,,,,,,,,,,,,,,,,,,,,,,,,,,,,,,,,,,,,,,,,,,,,,,,,,,,,,,,,,,,,,,,,,,,,,,,,,,,,,,,,,,,,,,,,,,,,,,,,,,,,,,,,,,,
,,,,,,,,,751,001,BAC,2022-01-18_21h43.44.667,workingMemoryTest,2020.2.10,Win32,60,,,,,,,,,,,,,,,46,Audio/46.mp3,46,1.8676,1,0,0,0,0,1,2,,,,,,,,,,,,,,,,,,,,,,,,,,,,,,,,,,,,,,,,,,,,,,,,,,,,,,,,,,,,,,,,,,,,,,,,,,,,,,,,,,,,,,,,,,,,,,,,,,,,,,,
,,,,,,,,,751,001,BAC,2022-01-18_21h43.44.667,workingMemoryTest,2020.2.10,Win32,60,,,,,,,,,,,,,,,,,,,,,,,,,,0,0,0,0,1,twoAudio.xlsx,,,,,,,,,,,,,,,,,,,,,,,,,,,,,,,,,,,,,,,,,,,,,,,,,,,,,,,,,,,,,,,,,,,,,,,,,,,,,,,,,,,,,,,,,,,,,,,,,
,,,,,,,,,751,001,BAC,2022-01-18_21h43.44.667,workingMemoryTest,2020.2.10,Win32,60,,,,,,,,,,,,,,,157,Audio/157.mp3,157,1.8004,1,0,0,0,0,1,3,,,,,,,,,,,,,,,,,,,,,,,,,,,,,,,,,,,,,,,,,,,,,,,,,,,,,,,,,,,,,,,,,,,,,,,,,,,,,,,,,,,,,,,,,,,,,,,,,,,,,,,
,,,,,,,,,751,001,BAC,2022-01-18_21h43.44.667,workingMemoryTest,2020.2.10,Win32,60,,,,,,,,,,,,,,,,,,,,,,,,,,0,1,1,1,1,threeAudio.xlsx,,,,,,,,,,,,,,,,,,,,,,,,,,,,,,,,,,,,,,,,,,,,,,,,,,,,,,,,,,,,,,,,,,,,,,,,,,,,,,,,,,,,,,,,,,,,,,,,,
,,,,,,,,,751,001,BAC,2022-01-18_21h43.44.667,workingMemoryTest,2020.2.10,Win32,60,,,,,,,,,,,,,,,6352,Audio/6352.mp3,6352,2.0511,1,0,0,0,0,1,4,,,,,,,,,,,,,,,,,,,,,,,,,,,,,,,,,,,,,,,,,,,,,,,,,,,,,,,,,,,,,,,,,,,,,,,,,,,,,,,,,,,,,,,,,,,,,,,,,,,,,,,
,,,,,,,,,751,001,BAC,2022-01-18_21h43.44.667,workingMemoryTest,2020.2.10,Win32,60,,,,,,,,,,,,,,,,,,,,,,,,,,0,2,2,2,1,fourAudio.xlsx,,,,,,,,,,,,,,,,,,,,,,,,,,,,,,,,,,,,,,,,,,,,,,,,,,,,,,,,,,,,,,,,,,,,,,,,,,,,,,,,,,,,,,,,,,,,,,,,,
,,,,,,,,,751,001,BAC,2022-01-18_21h43.44.667,workingMemoryTest,2020.2.10,Win32,60,,,,,,,,,,,,,,,59281,Audio/59281.mp3,59281,2.867,1,0,0,0,0,1,5,,,,,,,,,,,,,,,,,,,,,,,,,,,,,,,,,,,,,,,,,,,,,,,,,,,,,,,,,,,,,,,,,,,,,,,,,,,,,,,,,,,,,,,,,,,,,,,,,,,,,,,
,,,,,,,,,751,001,BAC,2022-01-18_21h43.44.667,workingMemoryTest,2020.2.10,Win32,60,,,,,,,,,,,,,,,,,,,,,,,,,,0,3,3,3,1,fiveAudio.xlsx,,,,,,,,,,,,,,,,,,,,,,,,,,,,,,,,,,,,,,,,,,,,,,,,,,,,,,,,,,,,,,,,,,,,,,,,,,,,,,,,,,,,,,,,,,,,,,,,,
,,,,,,,,,751,001,BAC,2022-01-18_21h43.44.667,workingMemoryTest,2020.2.10,Win32,60,,,,,,,,,,,,,,,396172,Audio/396172.mp3,396172,4.2847,1,0,0,0,0,1,6,,,,,,,,,,,,,,,,,,,,,,,,,,,,,,,,,,,,,,,,,,,,,,,,,,,,,,,,,,,,,,,,,,,,,,,,,,,,,,,,,,,,,,,,,,,,,,,,,,,,,,,
,,,,,,,,,751,001,BAC,2022-01-18_21h43.44.667,workingMemoryTest,2020.2.10,Win32,60,,,,,,,,,,,,,,,,,,,,,,,,,,0,4,4,4,1,sixAudio.xlsx,,,,,,,,,,,,,,,,,,,,,,,,,,,,,,,,,,,,,,,,,,,,,,,,,,,,,,,,,,,,,,,,,,,,,,,,,,,,,,,,,,,,,,,,,,,,,,,,,
,,,,,,,,,751,001,BAC,2022-01-18_21h43.44.667,workingMemoryTest,2020.2.10,Win32,60,,,,,,,,,,,,,,,8241973,Audio/8241973.mp3,8241973,4.3526,1,0,0,0,0,1,7,,,,,,,,,,,,,,,,,,,,,,,,,,,,,,,,,,,,,,,,,,,,,,,,,,,,,,,,,,,,,,,,,,,,,,,,,,,,,,,,,,,,,,,,,,,,,,,,,,,,,,,
,,,,,,,,,751,001,BAC,2022-01-18_21h43.44.667,workingMemoryTest,2020.2.10,Win32,60,,,,,,,,,,,,,,,,,,,,,,,,,,0,5,5,5,1,sevenAudio.xlsx,,,,,,,,,,,,,,,,,,,,,,,,,,,,,,,,,,,,,,,,,,,,,,,,,,,,,,,,,,,,,,,,,,,,,,,,,,,,,,,,,,,,,,,,,,,,,,,,,
,,,,,,,,,751,001,BAC,2022-01-18_21h43.44.667,workingMemoryTest,2020.2.10,Win32,60,,,,,,,,,,,,,,,53827164,Audio/53827164.mp3,53827164,5.0353,1,0,0,0,0,1,8,,,,,,,,,,,,,,,,,,,,,,,,,,,,,,,,,,,,,,,,,,,,,,,,,,,,,,,,,,,,,,,,,,,,,,,,,,,,,,,,,,,,,,,,,,,,,,,,,,,,,,,
,,,,,,,,,751,001,BAC,2022-01-18_21h43.44.667,workingMemoryTest,2020.2.10,Win32,60,,,,,,,,,,,,,,,,,,,,,,,,,,0,6,6,6,1,eightAudio.xlsx,,,,,,,,,,,,,,,,,,,,,,,,,,,,,,,,,,,,,,,,,,,,,,,,,,,,,,,,,,,,,,,,,,,,,,,,,,,,,,,,,,,,,,,,,,,,,,,,,
,,,,,,,,,751,001,BAC,2022-01-18_21h43.44.667,workingMemoryTest,2020.2.10,Win32,60,,,,,,,,,,,,,,,682594316,Audio/682594316.mp3,693284516,4.6356,0,0,0,0,0,1,9,,,,,,,,,,,,,,,,,,,,,,,,,,,,,,,,,,,,,,,,,,,,,,,,,,,,,,,,,,,,,,,,,,,,,,,,,,,,,,,,,,,,,,,,,,,,,,,,,,,,,,,
,,,,,,,,,751,001,BAC,2022-01-18_21h43.44.667,workingMemoryTest,2020.2.10,Win32,60,,,,,,,,,,,,,,,142963758,Audio/142963758.mp3,142963758,5.7356,1,0,1,1,1,1,9,,,,,,,,,,,,,,,,,,,,,,,,,,,,,,,,,,,,,,,,,,,,,,,,,,,,,,,,,,,,,,,,,,,,,,,,,,,,,,,,,,,,,,,,,,,,,,,,,,,,,,,
,,,,,,,,,751,001,BAC,2022-01-18_21h43.44.667,workingMemoryTest,2020.2.10,Win32,60,,,,,,,,,,,,,,,,,,,,,,,,,,0,7,7,7,1,nineAudio.xlsx,,,,,,,,,,,,,,,,,,,,,,,,,,,,,,,,,,,,,,,,,,,,,,,,,,,,,,,,,,,,,,,,,,,,,,,,,,,,,,,,,,,,,,,,,,,,,,,,,
,,,,,,,,,751,001,BAC,2022-01-18_21h43.44.667,workingMemoryTest,2020.2.10,Win32,60,,,,,,,,,,,,,,,,,,,,,,,,,,,,,,,,97,2.0664,1,0,0,0,0,1,2,97,Audio/97.mp3,,,,,,,,,,,,,,,,,,,,,,,,,,,,,,,,,,,,,,,,,,,,,,,,,,,,,,,,,,,,,,,,,,,,,,,,,,,,,,,,,,,,,,
,,,,,,,,,751,001,BAC,2022-01-18_21h43.44.667,workingMemoryTest,2020.2.10,Win32,60,,,,,,,,,,,,,,,,,,,,,,,,,,,,,,,,,,,,,,,,,,,0,0,0,0,1,twoWAIS.xlsx,,,,,,,,,,,,,,,,,,,,,,,,,,,,,,,,,,,,,,,,,,,,,,,,,,,,,,,,,,,,,,,,,,,,,,,,,,,,,,,,
,,,,,,,,,751,001,BAC,2022-01-18_21h43.44.667,workingMemoryTest,2020.2.10,Win32,60,,,,,,,,,,,,,,,,,,,,,,,,,,,,,,,,582,1.3505,1,0,0,0,0,1,3,582,Audio/582.mp3,,,,,,,,,,,,,,,,,,,,,,,,,,,,,,,,,,,,,,,,,,,,,,,,,,,,,,,,,,,,,,,,,,,,,,,,,,,,,,,,,,,,,,
,,,,,,,,,751,001,BAC,2022-01-18_21h43.44.667,workingMemoryTest,2020.2.10,Win32,60,,,,,,,,,,,,,,,,,,,,,,,,,,,,,,,,,,,,,,,,,,,0,1,1,1,1,threeWAIS.xlsx,,,,,,,,,,,,,,,,,,,,,,,,,,,,,,,,,,,,,,,,,,,,,,,,,,,,,,,,,,,,,,,,,,,,,,,,,,,,,,,,
,,,,,,,,,751,001,BAC,2022-01-18_21h43.44.667,workingMemoryTest,2020.2.10,Win32,60,,,,,,,,,,,,,,,,,,,,,,,,,,,,,,,,7286,2.1016,1,0,0,0,0,1,4,7286,Audio/7286.mp3,,,,,,,,,,,,,,,,,,,,,,,,,,,,,,,,,,,,,,,,,,,,,,,,,,,,,,,,,,,,,,,,,,,,,,,,,,,,,,,,,,,,,,
,,,,,,,,,751,001,BAC,2022-01-18_21h43.44.667,workingMemoryTest,2020.2.10,Win32,60,,,,,,,,,,,,,,,,,,,,,,,,,,,,,,,,,,,,,,,,,,,0,2,2,2,1,fourWAIS.xlsx,,,,,,,,,,,,,,,,,,,,,,,,,,,,,,,,,,,,,,,,,,,,,,,,,,,,,,,,,,,,,,,,,,,,,,,,,,,,,,,,
,,,,,,,,,751,001,BAC,2022-01-18_21h43.44.667,workingMemoryTest,2020.2.10,Win32,60,,,,,,,,,,,,,,,,,,,,,,,,,,,,,,,,42731,4.4525,1,0,0,0,0,1,5,42731,Audio/42731.mp3,,,,,,,,,,,,,,,,,,,,,,,,,,,,,,,,,,,,,,,,,,,,,,,,,,,,,,,,,,,,,,,,,,,,,,,,,,,,,,,,,,,,,,
,,,,,,,,,751,001,BAC,2022-01-18_21h43.44.667,workingMemoryTest,2020.2.10,Win32,60,,,,,,,,,,,,,,,,,,,,,,,,,,,,,,,,,,,,,,,,,,,0,3,3,3,1,fiveWAIS.xlsx,,,,,,,,,,,,,,,,,,,,,,,,,,,,,,,,,,,,,,,,,,,,,,,,,,,,,,,,,,,,,,,,,,,,,,,,,,,,,,,,
,,,,,,,,,751,001,BAC,2022-01-18_21h43.44.667,workingMemoryTest,2020.2.10,Win32,60,,,,,,,,,,,,,,,,,,,,,,,,,,,,,,,,392487,5.6363,1,0,0,0,0,1,6,392487,Audio/392487.mp3,,,,,,,,,,,,,,,,,,,,,,,,,,,,,,,,,,,,,,,,,,,,,,,,,,,,,,,,,,,,,,,,,,,,,,,,,,,,,,,,,,,,,,
,,,,,,,,,751,001,BAC,2022-01-18_21h43.44.667,workingMemoryTest,2020.2.10,Win32,60,,,,,,,,,,,,,,,,,,,,,,,,,,,,,,,,,,,,,,,,,,,0,4,4,4,1,sixWAIS.xlsx,,,,,,,,,,,,,,,,,,,,,,,,,,,,,,,,,,,,,,,,,,,,,,,,,,,,,,,,,,,,,,,,,,,,,,,,,,,,,,,,
,,,,,,,,,751,001,BAC,2022-01-18_21h43.44.667,workingMemoryTest,2020.2.10,Win32,60,,,,,,,,,,,,,,,,,,,,,,,,,,,,,,,,6917428,5.4853,1,0,0,0,0,1,7,6917428,Audio/6917428.mp3,,,,,,,,,,,,,,,,,,,,,,,,,,,,,,,,,,,,,,,,,,,,,,,,,,,,,,,,,,,,,,,,,,,,,,,,,,,,,,,,,,,,,,
,,,,,,,,,751,001,BAC,2022-01-18_21h43.44.667,workingMemoryTest,2020.2.10,Win32,60,,,,,,,,,,,,,,,,,,,,,,,,,,,,,,,,,,,,,,,,,,,0,5,5,5,1,sevenWAIS.xlsx,,,,,,,,,,,,,,,,,,,,,,,,,,,,,,,,,,,,,,,,,,,,,,,,,,,,,,,,,,,,,,,,,,,,,,,,,,,,,,,,
,,,,,,,,,751,001,BAC,2022-01-18_21h43.44.667,workingMemoryTest,2020.2.10,Win32,60,,,,,,,,,,,,,,,,,,,,,,,,,,,,,,,,38296174,6.2369,1,0,0,0,0,1,8,38296174,Audio/38296174.mp3,,,,,,,,,,,,,,,,,,,,,,,,,,,,,,,,,,,,,,,,,,,,,,,,,,,,,,,,,,,,,,,,,,,,,,,,,,,,,,,,,,,,,,
,,,,,,,,,751,001,BAC,2022-01-18_21h43.44.667,workingMemoryTest,2020.2.10,Win32,60,,,,,,,,,,,,,,,,,,,,,,,,,,,,,,,,,,,,,,,,,,,0,6,6,6,1,eightWAIS.xlsx,,,,,,,,,,,,,,,,,,,,,,,,,,,,,,,,,,,,,,,,,,,,,,,,,,,,,,,,,,,,,,,,,,,,,,,,,,,,,,,,
,,,,,,,,,751,001,BAC,2022-01-18_21h43.44.667,workingMemoryTest,2020.2.10,Win32,60,,,,,,,,,,,,,,,,,,,,,,,,,,,,,,,,275861914,5.886,0,0,0,0,0,1,9,275863194,Audio/275863194.mp3,,,,,,,,,,,,,,,,,,,,,,,,,,,,,,,,,,,,,,,,,,,,,,,,,,,,,,,,,,,,,,,,,,,,,,,,,,,,,,,,,,,,,,
,,,,,,,,,751,001,BAC,2022-01-18_21h43.44.667,workingMemoryTest,2020.2.10,Win32,60,,,,,,,,,,,,,,,,,,,,,,,,,,,,,,,,714396288,6.0519,0,0,1,1,1,1,9,713942568,Audio/713942568.mp3,,,,,,,,,,,,,,,,,,,,,,,,,,,,,,,,,,,,,,,,,,,,,,,,,,,,,,,,,,,,,,,,,,,,,,,,,,,,,,,,,,,,,,
,,,,,,,,,751,001,BAC,2022-01-18_21h43.44.667,workingMemoryTest,2020.2.10,Win32,60,,,,,,,,,,,,,,,,,,,,,,,,,,,,,,,,,,,,,,,,,,,,,,,,,0,0,0,0,1,,,,,,,,,,,,,,,,,,,,,,,,,,,,,,,,,,,,,,,,,,,,,,,,,,,,,,,,,,,,,,,,,,,,,,,,,,,
,,,,,,,,,751,001,BAC,2022-01-18_21h43.44.667,workingMemoryTest,2020.2.10,Win32,60,,,,,,,,,,,,,,,,,,,,,,,,,,,,,,,,,,,,,,,,,,,,,,,,,,,,,,0,0,0,0,1,0,1,0,,,,,,,,,,,,,,,,,,,,,,,,,,,,,,,,,,,,,,,,,,,,,,,,,,,,,,,,,,,,,,,,,,,
,,,,,,,,,751,001,BAC,2022-01-18_21h43.44.667,workingMemoryTest,2020.2.10,Win32,60,,,,,,,,,,,,,,,,,,,,,,,,,,,,,,,,,,,,,,,,,,,,,,,,,,,,,,,,,,,,,,33,1.3671,1,0,0,0,2,1,3 x 11 =,NA,practiceQ,33,,,,,,,,,,,,,,,,,,,,,,,,,,,,,,,,,,,,,,,,,,,,,,,,,,,,,,,
,,,,,,,,,751,001,BAC,2022-01-18_21h43.44.667,workingMemoryTest,2020.2.10,Win32,60,,,,,,,,,,,,,,,,,,,,,,,,,,,,,,,,,,,,,,,,,,,,,,,,,,,,,,,,,,,,,,50,1.434,1,0,1,1,1,1,5 x 10 =,NA,practiceQ,50,,,,,,,,,,,,,,,,,,,,,,,,,,,,,,,,,,,,,,,,,,,,,,,,,,,,,,,
,,,,,,,,,751,001,BAC,2022-01-18_21h43.44.667,workingMemoryTest,2020.2.10,Win32,60,,,,,,,,,,,,,,,,,,,,,,,,,,,,,,,,,,,,,,,,,,,,,,,,,,,,,,,,,,,,,,7,1.2675,1,0,2,2,0,1,1 x 7 =,NA,practiceQ,7,,,,,,,,,,,,,,,,,,,,,,,,,,,,,,,,,,,,,,,,,,,,,,,,,,,,,,,
,,,,,,,,,751,001,BAC,2022-01-18_21h43.44.667,workingMemoryTest,2020.2.10,Win32,60,,,,,,,,,,,,,,,,,,,,,,,,,,,,,,,,,,,,,,,,,,,,,,,,,,,,,,,,,,,,,,24,1.2492,1,,,,,,6 x 4 =,largeFirst,smallProd,24,0,0,0,6,1,,,,,,,,,,,,,,,,,,,,,,,,,,,,,,,,,,,,,,,,,,,,,,,,,,
,,,,,,,,,751,001,BAC,2022-01-18_21h43.44.667,workingMemoryTest,2020.2.10,Win32,60,,,,,,,,,,,,,,,,,,,,,,,,,,,,,,,,,,,,,,,,,,,,,,,,,,,,,,,,,,,,,,32,1.1169,1,,,,,,8 x 4 =,largeFirst,largeProd,32,0,1,1,8,1,,,,,,,,,,,,,,,,,,,,,,,,,,,,,,,,,,,,,,,,,,,,,,,,,,
,,,,,,,,,751,001,BAC,2022-01-18_21h43.44.667,workingMemoryTest,2020.2.10,Win32,60,,,,,,,,,,,,,,,,,,,,,,,,,,,,,,,,,,,,,,,,,,,,,,,,,,,,,,,,,,,,,,14,1.1998,1,,,,,,7 x 2 =,largeFirst,smallProd,14,0,2,2,4,1,,,,,,,,,,,,,,,,,,,,,,,,,,,,,,,,,,,,,,,,,,,,,,,,,,
,,,,,,,,,751,001,BAC,2022-01-18_21h43.44.667,workingMemoryTest,2020.2.10,Win32,60,,,,,,,,,,,,,,,,,,,,,,,,,,,,,,,,,,,,,,,,,,,,,,,,,,,,,,,,,,,,,,40,1.2512,1,,,,,,5 x 8 =,smallFirst,largeProd,40,0,3,3,27,1,,,,,,,,,,,,,,,,,,,,,,,,,,,,,,,,,,,,,,,,,,,,,,,,,,
,,,,,,,,,751,001,BAC,2022-01-18_21h43.44.667,workingMemoryTest,2020.2.10,Win32,60,,,,,,,,,,,,,,,,,,,,,,,,,,,,,,,,,,,,,,,,,,,,,,,,,,,,,,,,,,,,,,20,1.3675,1,,,,,,4 x 5 =,smallFirst,smallProd,20,0,4,4,16,1,,,,,,,,,,,,,,,,,,,,,,,,,,,,,,,,,,,,,,,,,,,,,,,,,,
,,,,,,,,,751,001,BAC,2022-01-18_21h43.44.667,workingMemoryTest,2020.2.10,Win32,60,,,,,,,,,,,,,,,,,,,,,,,,,,,,,,,,,,,,,,,,,,,,,,,,,,,,,,,,,,,,,,21,1.2171,1,,,,,,3 x 7 =,smallFirst,smallProd,21,0,5,5,14,1,,,,,,,,,,,,,,,,,,,,,,,,,,,,,,,,,,,,,,,,,,,,,,,,,,
,,,,,,,,,751,001,BAC,2022-01-18_21h43.44.667,workingMemoryTest,2020.2.10,Win32,60,,,,,,,,,,,,,,,,,,,,,,,,,,,,,,,,,,,,,,,,,,,,,,,,,,,,,,,,,,,,,,49,1.401,1,,,,,,7 x 7 =,tie,largeProd,49,0,6,6,29,1,,,,,,,,,,,,,,,,,,,,,,,,,,,,,,,,,,,,,,,,,,,,,,,,,,
,,,,,,,,,751,001,BAC,2022-01-18_21h43.44.667,workingMemoryTest,2020.2.10,Win32,60,,,,,,,,,,,,,,,,,,,,,,,,,,,,,,,,,,,,,,,,,,,,,,,,,,,,,,,,,,,,,,35,1.2669,1,,,,,,7 x 5 =,largeFirst,largeProd,35,0,7,7,11,1,,,,,,,,,,,,,,,,,,,,,,,,,,,,,,,,,,,,,,,,,,,,,,,,,,
,,,,,,,,,751,001,BAC,2022-01-18_21h43.44.667,workingMemoryTest,2020.2.10,Win32,60,,,,,,,,,,,,,,,,,,,,,,,,,,,,,,,,,,,,,,,,,,,,,,,,,,,,,,,,,,,,,,72,1.8505,1,,,,,,8 x 9 =,smallFirst,largeProd,72,0,8,8,24,1,,,,,,,,,,,,,,,,,,,,,,,,,,,,,,,,,,,,,,,,,,,,,,,,,,
,,,,,,,,,751,001,BAC,2022-01-18_21h43.44.667,workingMemoryTest,2020.2.10,Win32,60,,,,,,,,,,,,,,,,,,,,,,,,,,,,,,,,,,,,,,,,,,,,,,,,,,,,,,,,,,,,,,12,1.0673,1,,,,,,2 x 6 =,smallFirst,smallProd,12,0,9,9,20,1,,,,,,,,,,,,,,,,,,,,,,,,,,,,,,,,,,,,,,,,,,,,,,,,,,
,,,,,,,,,751,001,BAC,2022-01-18_21h43.44.667,workingMemoryTest,2020.2.10,Win32,60,,,,,,,,,,,,,,,,,,,,,,,,,,,,,,,,,,,,,,,,,,,,,,,,,,,,,,,,,,,,,,8,1.1667,1,,,,,,2 x 4 =,smallFirst,smallProd,8,0,10,10,17,1,,,,,,,,,,,,,,,,,,,,,,,,,,,,,,,,,,,,,,,,,,,,,,,,,,
,,,,,,,,,751,001,BAC,2022-01-18_21h43.44.667,workingMemoryTest,2020.2.10,Win32,60,,,,,,,,,,,,,,,,,,,,,,,,,,,,,,,,,,,,,,,,,,,,,,,,,,,,,,,,,,,,,,63,1.6339,1,,,,,,9 x 7 =,largeFirst,largeProd,63,0,11,11,12,1,,,,,,,,,,,,,,,,,,,,,,,,,,,,,,,,,,,,,,,,,,,,,,,,,,
,,,,,,,,,751,001,BAC,2022-01-18_21h43.44.667,workingMemoryTest,2020.2.10,Win32,60,,,,,,,,,,,,,,,,,,,,,,,,,,,,,,,,,,,,,,,,,,,,,,,,,,,,,,,,,,,,,,56,1.466,1,,,,,,7 x 8 =,smallFirst,largeProd,56,0,12,12,23,1,,,,,,,,,,,,,,,,,,,,,,,,,,,,,,,,,,,,,,,,,,,,,,,,,,
,,,,,,,,,751,001,BAC,2022-01-18_21h43.44.667,workingMemoryTest,2020.2.10,Win32,60,,,,,,,,,,,,,,,,,,,,,,,,,,,,,,,,,,,,,,,,,,,,,,,,,,,,,,,,,,,,,,18,1.3497,1,,,,,,2 x 9 =,smallFirst,smallProd,18,0,13,13,18,1,,,,,,,,,,,,,,,,,,,,,,,,,,,,,,,,,,,,,,,,,,,,,,,,,,
,,,,,,,,,751,001,BAC,2022-01-18_21h43.44.667,workingMemoryTest,2020.2.10,Win32,60,,,,,,,,,,,,,,,,,,,,,,,,,,,,,,,,,,,,,,,,,,,,,,,,,,,,,,,,,,,,,,9,1.1672,1,,,,,,3 x 3 =,tie,smallProd,9,0,14,14,28,1,,,,,,,,,,,,,,,,,,,,,,,,,,,,,,,,,,,,,,,,,,,,,,,,,,
,,,,,,,,,751,001,BAC,2022-01-18_21h43.44.667,workingMemoryTest,2020.2.10,Win32,60,,,,,,,,,,,,,,,,,,,,,,,,,,,,,,,,,,,,,,,,,,,,,,,,,,,,,,,,,,,,,,6,1.1669,1,,,,,,3 x 2 =,largeFirst,smallProd,6,0,15,15,0,1,,,,,,,,,,,,,,,,,,,,,,,,,,,,,,,,,,,,,,,,,,,,,,,,,,
,,,,,,,,,751,001,BAC,2022-01-18_21h43.44.667,workingMemoryTest,2020.2.10,Win32,60,,,,,,,,,,,,,,,,,,,,,,,,,,,,,,,,,,,,,,,,,,,,,,,,,,,,,,,,,,,,,,27,1.3172,1,,,,,,9 x 3 =,largeFirst,largeProd,27,0,16,16,7,1,,,,,,,,,,,,,,,,,,,,,,,,,,,,,,,,,,,,,,,,,,,,,,,,,,
,,,,,,,,,751,001,BAC,2022-01-18_21h43.44.667,workingMemoryTest,2020.2.10,Win32,60,,,,,,,,,,,,,,,,,,,,,,,,,,,,,,,,,,,,,,,,,,,,,,,,,,,,,,,,,,,,,,10,1.0503,1,,,,,,5 x 2 =,largeFirst,smallProd,10,0,17,17,2,1,,,,,,,,,,,,,,,,,,,,,,,,,,,,,,,,,,,,,,,,,,,,,,,,,,
,,,,,,,,,751,001,BAC,2022-01-18_21h43.44.667,workingMemoryTest,2020.2.10,Win32,60,,,,,,,,,,,,,,,,,,,,,,,,,,,,,,,,,,,,,,,,,,,,,,,,,,,,,,,,,,,,,,24,1.2002,1,,,,,,3 x 8 =,smallFirst,smallProd,24,0,18,18,15,1,,,,,,,,,,,,,,,,,,,,,,,,,,,,,,,,,,,,,,,,,,,,,,,,,,
,,,,,,,,,751,001,BAC,2022-01-18_21h43.44.667,workingMemoryTest,2020.2.10,Win32,60,,,,,,,,,,,,,,,,,,,,,,,,,,,,,,,,,,,,,,,,,,,,,,,,,,,,,,,,,,,,,,45,1.3168,1,,,,,,9 x 5 =,largeFirst,largeProd,45,0,19,19,9,1,,,,,,,,,,,,,,,,,,,,,,,,,,,,,,,,,,,,,,,,,,,,,,,,,,
,,,,,,,,,751,001,BAC,2022-01-18_21h43.44.667,workingMemoryTest,2020.2.10,Win32,60,,,,,,,,,,,,,,,,,,,,,,,,,,,,,,,,,,,,,,,,,,,,,,,,,,,,,,,,,,,,,,36,1.4337,1,,,,,,4 x 9 =,smallFirst,largeProd,36,0,20,20,26,1,,,,,,,,,,,,,,,,,,,,,,,,,,,,,,,,,,,,,,,,,,,,,,,,,,
,,,,,,,,,751,001,BAC,2022-01-18_21h43.44.667,workingMemoryTest,2020.2.10,Win32,60,,,,,,,,,,,,,,,,,,,,,,,,,,,,,,,,,,,,,,,,,,,,,,,,,,,,,,,,,,,,,,16,1.2667,1,,,,,,8 x 2 =,largeFirst,smallProd,16,0,21,21,5,1,,,,,,,,,,,,,,,,,,,,,,,,,,,,,,,,,,,,,,,,,,,,,,,,,,
,,,,,,,,,751,001,BAC,2022-01-18_21h43.44.667,workingMemoryTest,2020.2.10,Win32,60,,,,,,,,,,,,,,,,,,,,,,,,,,,,,,,,,,,,,,,,,,,,,,,,,,,,,,,,,,,,,,48,1.3338,1,,,,,,6 x 8 =,smallFirst,largeProd,48,0,22,22,21,1,,,,,,,,,,,,,,,,,,,,,,,,,,,,,,,,,,,,,,,,,,,,,,,,,,
,,,,,,,,,751,001,BAC,2022-01-18_21h43.44.667,workingMemoryTest,2020.2.10,Win32,60,,,,,,,,,,,,,,,,,,,,,,,,,,,,,,,,,,,,,,,,,,,,,,,,,,,,,,,,,,,,,,54,1.5171,1,,,,,,6 x 9 =,smallFirst,largeProd,54,0,23,23,22,1,,,,,,,,,,,,,,,,,,,,,,,,,,,,,,,,,,,,,,,,,,,,,,,,,,
,,,,,,,,,751,001,BAC,2022-01-18_21h43.44.667,workingMemoryTest,2020.2.10,Win32,60,,,,,,,,,,,,,,,,,,,,,,,,,,,,,,,,,,,,,,,,,,,,,,,,,,,,,,,,,,,,,,30,1.4336,1,,,,,,6 x 5 =,largeFirst,largeProd,30,0,24,24,13,1,,,,,,,,,,,,,,,,,,,,,,,,,,,,,,,,,,,,,,,,,,,,,,,,,,
,,,,,,,,,751,001,BAC,2022-01-18_21h43.44.667,workingMemoryTest,2020.2.10,Win32,60,,,,,,,,,,,,,,,,,,,,,,,,,,,,,,,,,,,,,,,,,,,,,,,,,,,,,,,,,,,,,,42,1.3833,1,,,,,,7 x 6 =,largeFirst,largeProd,42,0,25,25,10,1,,,,,,,,,,,,,,,,,,,,,,,,,,,,,,,,,,,,,,,,,,,,,,,,,,
,,,,,,,,,751,001,BAC,2022-01-18_21h43.44.667,workingMemoryTest,2020.2.10,Win32,60,,,,,,,,,,,,,,,,,,,,,,,,,,,,,,,,,,,,,,,,,,,,,,,,,,,,,,,,,,,,,,18,1.4347,1,,,,,,6 x 3 =,largeFirst,smallProd,18,0,26,26,3,1,,,,,,,,,,,,,,,,,,,,,,,,,,,,,,,,,,,,,,,,,,,,,,,,,,
,,,,,,,,,751,001,BAC,2022-01-18_21h43.44.667,workingMemoryTest,2020.2.10,Win32,60,,,,,,,,,,,,,,,,,,,,,,,,,,,,,,,,,,,,,,,,,,,,,,,,,,,,,,,,,,,,,,15,1.2348,1,,,,,,3 x 5 =,smallFirst,smallProd,15,0,27,27,19,1,,,,,,,,,,,,,,,,,,,,,,,,,,,,,,,,,,,,,,,,,,,,,,,,,,
,,,,,,,,,751,001,BAC,2022-01-18_21h43.44.667,workingMemoryTest,2020.2.10,Win32,60,,,,,,,,,,,,,,,,,,,,,,,,,,,,,,,,,,,,,,,,,,,,,,,,,,,,,,,,,,,,,,12,1.0673,1,,,,,,4 x 3 =,largeFirst,smallProd,12,0,28,28,1,1,,,,,,,,,,,,,,,,,,,,,,,,,,,,,,,,,,,,,,,,,,,,,,,,,,
,,,,,,,,,751,001,BAC,2022-01-18_21h43.44.667,workingMemoryTest,2020.2.10,Win32,60,,,,,,,,,,,,,,,,,,,,,,,,,,,,,,,,,,,,,,,,,,,,,,,,,,,,,,,,,,,,,,28,1.7841,1,,,,,,4 x 7 =,smallFirst,largeProd,28,0,29,29,25,1,,,,,,,,,,,,,,,,,,,,,,,,,,,,,,,,,,,,,,,,,,,,,,,,,,
,,,,,,,,,751,001,BAC,2022-01-18_21h43.44.667,workingMemoryTest,2020.2.10,Win32,60,,,,,,,,,,,,,,,,,,,,,,,,,,,,,,,,,,,,,,,,,,,,,,,,,,,,,,,,,,,,,,,,,,,,,,,,,,,,,,,0,0,0,0,1,multiplOne.xlsx,,,,,,,,,,,,,,,,,,,,,,,,,,,,,,,,,,,,,,,,,,,,
,,,,,,,,,751,001,BAC,2022-01-18_21h43.44.667,workingMemoryTest,2020.2.10,Win32,60,,,,,,,,,,,,,,,,,,,,,,,,,,,,,,,,,,,,,,,,,,,,,,,,,,,,,,,,,,,,,,8,1.1835,1,,,,,,4 x 2 =,largeFirst,smallProd,8,0,0,0,0,1,,,,,,,,,,,,,,,,,,,,,,,,,,,,,,,,,,,,,,,,,,,,,,,,,,
,,,,,,,,,751,001,BAC,2022-01-18_21h43.44.667,workingMemoryTest,2020.2.10,Win32,60,,,,,,,,,,,,,,,,,,,,,,,,,,,,,,,,,,,,,,,,,,,,,,,,,,,,,,,,,,,,,,18,1.2342,1,,,,,,3 x 6 =,smallFirst,smallProd,18,0,1,1,17,1,,,,,,,,,,,,,,,,,,,,,,,,,,,,,,,,,,,,,,,,,,,,,,,,,,
,,,,,,,,,751,001,BAC,2022-01-18_21h43.44.667,workingMemoryTest,2020.2.10,Win32,60,,,,,,,,,,,,,,,,,,,,,,,,,,,,,,,,,,,,,,,,,,,,,,,,,,,,,,,,,,,,,,40,1.3007,1,,,,,,8 x 5 =,largeFirst,largeProd,40,0,2,2,11,1,,,,,,,,,,,,,,,,,,,,,,,,,,,,,,,,,,,,,,,,,,,,,,,,,,
,,,,,,,,,751,001,BAC,2022-01-18_21h43.44.667,workingMemoryTest,2020.2.10,Win32,60,,,,,,,,,,,,,,,,,,,,,,,,,,,,,,,,,,,,,,,,,,,,,,,,,,,,,,,,,,,,,,16,1.2659,1,,,,,,2 x 8 =,smallFirst,smallProd,16,0,3,3,19,1,,,,,,,,,,,,,,,,,,,,,,,,,,,,,,,,,,,,,,,,,,,,,,,,,,
,,,,,,,,,751,001,BAC,2022-01-18_21h43.44.667,workingMemoryTest,2020.2.10,Win32,60,,,,,,,,,,,,,,,,,,,,,,,,,,,,,,,,,,,,,,,,,,,,,,,,,,,,,,,,,,,,,,24,1.2836,1,,,,,,4 x 6 =,smallFirst,smallProd,24,0,4,4,20,1,,,,,,,,,,,,,,,,,,,,,,,,,,,,,,,,,,,,,,,,,,,,,,,,,,
,,,,,,,,,751,001,BAC,2022-01-18_21h43.44.667,workingMemoryTest,2020.2.10,Win32,60,,,,,,,,,,,,,,,,,,,,,,,,,,,,,,,,,,,,,,,,,,,,,,,,,,,,,,,,,,,,,,64,1.3506,1,,,,,,8 x 8 =,tie,largeProd,64,0,5,5,29,1,,,,,,,,,,,,,,,,,,,,,,,,,,,,,,,,,,,,,,,,,,,,,,,,,,
,,,,,,,,,751,001,BAC,2022-01-18_21h43.44.667,workingMemoryTest,2020.2.10,Win32,60,,,,,,,,,,,,,,,,,,,,,,,,,,,,,,,,,,,,,,,,,,,,,,,,,,,,,,,,,,,,,,72,1.4012,1,,,,,,9 x 8 =,largeFirst,largeProd,72,0,6,6,12,1,,,,,,,,,,,,,,,,,,,,,,,,,,,,,,,,,,,,,,,,,,,,,,,,,,
,,,,,,,,,751,001,BAC,2022-01-18_21h43.44.667,workingMemoryTest,2020.2.10,Win32,60,,,,,,,,,,,,,,,,,,,,,,,,,,,,,,,,,,,,,,,,,,,,,,,,,,,,,,,,,,,,,,18,1.1169,1,,,,,,9 x 2 =,largeFirst,smallProd,18,0,7,7,6,1,,,,,,,,,,,,,,,,,,,,,,,,,,,,,,,,,,,,,,,,,,,,,,,,,,
,,,,,,,,,751,001,BAC,2022-01-18_21h43.44.667,workingMemoryTest,2020.2.10,Win32,60,,,,,,,,,,,,,,,,,,,,,,,,,,,,,,,,,,,,,,,,,,,,,,,,,,,,,,,,,,,,,,21,1.1677,1,,,,,,7 x 3 =,largeFirst,smallProd,21,0,8,8,3,1,,,,,,,,,,,,,,,,,,,,,,,,,,,,,,,,,,,,,,,,,,,,,,,,,,
,,,,,,,,,751,001,BAC,2022-01-18_21h43.44.667,workingMemoryTest,2020.2.10,Win32,60,,,,,,,,,,,,,,,,,,,,,,,,,,,,,,,,,,,,,,,,,,,,,,,,,,,,,,,,,,,,,,45,1.2512,1,,,,,,5 x 9 =,smallFirst,largeProd,45,0,9,9,21,1,,,,,,,,,,,,,,,,,,,,,,,,,,,,,,,,,,,,,,,,,,,,,,,,,,
,,,,,,,,,751,001,BAC,2022-01-18_21h43.44.667,workingMemoryTest,2020.2.10,Win32,60,,,,,,,,,,,,,,,,,,,,,,,,,,,,,,,,,,,,,,,,,,,,,,,,,,,,,,,,,,,,,,63,1.7999,1,,,,,,7 x 9 =,smallFirst,largeProd,63,0,10,10,26,1,,,,,,,,,,,,,,,,,,,,,,,,,,,,,,,,,,,,,,,,,,,,,,,,,,
,,,,,,,,,751,001,BAC,2022-01-18_21h43.44.667,workingMemoryTest,2020.2.10,Win32,60,,,,,,,,,,,,,,,,,,,,,,,,,,,,,,,,,,,,,,,,,,,,,,,,,,,,,,,,,,,,,,28,1.268,1,,,,,,7 x 4 =,largeFirst,largeProd,28,0,11,11,7,1,,,,,,,,,,,,,,,,,,,,,,,,,,,,,,,,,,,,,,,,,,,,,,,,,,
,,,,,,,,,751,001,BAC,2022-01-18_21h43.44.667,workingMemoryTest,2020.2.10,Win32,60,,,,,,,,,,,,,,,,,,,,,,,,,,,,,,,,,,,,,,,,,,,,,,,,,,,,,,,,,,,,,,30,1.1671,1,,,,,,5 x 6 =,smallFirst,largeProd,30,0,12,12,27,1,,,,,,,,,,,,,,,,,,,,,,,,,,,,,,,,,,,,,,,,,,,,,,,,,,
,,,,,,,,,751,001,BAC,2022-01-18_21h43.44.667,workingMemoryTest,2020.2.10,Win32,60,,,,,,,,,,,,,,,,,,,,,,,,,,,,,,,,,,,,,,,,,,,,,,,,,,,,,,,,,,,,,,15,1.2686,1,,,,,,5 x 3 =,largeFirst,smallProd,15,0,13,13,1,1,,,,,,,,,,,,,,,,,,,,,,,,,,,,,,,,,,,,,,,,,,,,,,,,,,
,,,,,,,,,751,001,BAC,2022-01-18_21h43.44.667,workingMemoryTest,2020.2.10,Win32,60,,,,,,,,,,,,,,,,,,,,,,,,,,,,,,,,,,,,,,,,,,,,,,,,,,,,,,,,,,,,,,36,1.4337,1,,,,,,9 x 4 =,largeFirst,largeProd,36,0,14,14,8,1,,,,,,,,,,,,,,,,,,,,,,,,,,,,,,,,,,,,,,,,,,,,,,,,,,
,,,,,,,,,751,001,BAC,2022-01-18_21h43.44.667,workingMemoryTest,2020.2.10,Win32,60,,,,,,,,,,,,,,,,,,,,,,,,,,,,,,,,,,,,,,,,,,,,,,,,,,,,,,,,,,,,,,12,1.234,1,,,,,,6 x 2 =,largeFirst,smallProd,12,0,15,15,2,1,,,,,,,,,,,,,,,,,,,,,,,,,,,,,,,,,,,,,,,,,,,,,,,,,,
,,,,,,,,,751,001,BAC,2022-01-18_21h43.44.667,workingMemoryTest,2020.2.10,Win32,60,,,,,,,,,,,,,,,,,,,,,,,,,,,,,,,,,,,,,,,,,,,,,,,,,,,,,,,,,,,,,,32,1.152,1,,,,,,4 x 8 =,smallFirst,largeProd,32,0,16,16,22,1,,,,,,,,,,,,,,,,,,,,,,,,,,,,,,,,,,,,,,,,,,,,,,,,,,
,,,,,,,,,751,001,BAC,2022-01-18_21h43.44.667,workingMemoryTest,2020.2.10,Win32,60,,,,,,,,,,,,,,,,,,,,,,,,,,,,,,,,,,,,,,,,,,,,,,,,,,,,,,,,,,,,,,35,1.3178,1,,,,,,5 x 7 =,smallFirst,largeProd,35,0,17,17,25,1,,,,,,,,,,,,,,,,,,,,,,,,,,,,,,,,,,,,,,,,,,,,,,,,,,
,,,,,,,,,751,001,BAC,2022-01-18_21h43.44.667,workingMemoryTest,2020.2.10,Win32,60,,,,,,,,,,,,,,,,,,,,,,,,,,,,,,,,,,,,,,,,,,,,,,,,,,,,,,,,,,,,,,14,1.3823,1,,,,,,2 x 7 =,smallFirst,smallProd,14,0,18,18,18,1,,,,,,,,,,,,,,,,,,,,,,,,,,,,,,,,,,,,,,,,,,,,,,,,,,
,,,,,,,,,751,001,BAC,2022-01-18_21h43.44.667,workingMemoryTest,2020.2.10,Win32,60,,,,,,,,,,,,,,,,,,,,,,,,,,,,,,,,,,,,,,,,,,,,,,,,,,,,,,,,,,,,,,42,1.4682,1,,,,,,6 x 7 =,smallFirst,largeProd,42,0,19,19,23,1,,,,,,,,,,,,,,,,,,,,,,,,,,,,,,,,,,,,,,,,,,,,,,,,,,
,,,,,,,,,751,001,BAC,2022-01-18_21h43.44.667,workingMemoryTest,2020.2.10,Win32,60,,,,,,,,,,,,,,,,,,,,,,,,,,,,,,,,,,,,,,,,,,,,,,,,,,,,,,,,,,,,,,56,1.4333,1,,,,,,8 x 7 =,largeFirst,largeProd,56,0,20,20,10,1,,,,,,,,,,,,,,,,,,,,,,,,,,,,,,,,,,,,,,,,,,,,,,,,,,
,,,,,,,,,751,001,BAC,2022-01-18_21h43.44.667,workingMemoryTest,2020.2.10,Win32,60,,,,,,,,,,,,,,,,,,,,,,,,,,,,,,,,,,,,,,,,,,,,,,,,,,,,,,,,,,,,,,12,1.0829,1,,,,,,3 x 4 =,smallFirst,smallProd,12,0,21,21,15,1,,,,,,,,,,,,,,,,,,,,,,,,,,,,,,,,,,,,,,,,,,,,,,,,,,
,,,,,,,,,751,001,BAC,2022-01-18_21h43.44.667,workingMemoryTest,2020.2.10,Win32,60,,,,,,,,,,,,,,,,,,,,,,,,,,,,,,,,,,,,,,,,,,,,,,,,,,,,,,,,,,,,,,24,2.4502,1,,,,,,8 x 3 =,largeFirst,smallProd,24,0,22,22,4,1,,,,,,,,,,,,,,,,,,,,,,,,,,,,,,,,,,,,,,,,,,,,,,,,,,
,,,,,,,,,751,001,BAC,2022-01-18_21h43.44.667,workingMemoryTest,2020.2.10,Win32,60,,,,,,,,,,,,,,,,,,,,,,,,,,,,,,,,,,,,,,,,,,,,,,,,,,,,,,,,,,,,,,54,1.3669,1,,,,,,9 x 6 =,largeFirst,largeProd,54,0,23,23,9,1,,,,,,,,,,,,,,,,,,,,,,,,,,,,,,,,,,,,,,,,,,,,,,,,,,
,,,,,,,,,751,001,BAC,2022-01-18_21h43.44.667,workingMemoryTest,2020.2.10,Win32,60,,,,,,,,,,,,,,,,,,,,,,,,,,,,,,,,,,,,,,,,,,,,,,,,,,,,,,,,,,,,,,10,1.1172,1,,,,,,2 x 5 =,smallFirst,smallProd,10,0,24,24,16,1,,,,,,,,,,,,,,,,,,,,,,,,,,,,,,,,,,,,,,,,,,,,,,,,,,
,,,,,,,,,751,001,BAC,2022-01-18_21h43.44.667,workingMemoryTest,2020.2.10,Win32,60,,,,,,,,,,,,,,,,,,,,,,,,,,,,,,,,,,,,,,,,,,,,,,,,,,,,,,,,,,,,,,48,1.3837,1,,,,,,8 x 6 =,largeFirst,largeProd,48,0,25,25,13,1,,,,,,,,,,,,,,,,,,,,,,,,,,,,,,,,,,,,,,,,,,,,,,,,,,
,,,,,,,,,751,001,BAC,2022-01-18_21h43.44.667,workingMemoryTest,2020.2.10,Win32,60,,,,,,,,,,,,,,,,,,,,,,,,,,,,,,,,,,,,,,,,,,,,,,,,,,,,,,,,,,,,,,27,1.1682,1,,,,,,3 x 9 =,smallFirst,largeProd,27,0,26,26,24,1,,,,,,,,,,,,,,,,,,,,,,,,,,,,,,,,,,,,,,,,,,,,,,,,,,
,,,,,,,,,751,001,BAC,2022-01-18_21h43.44.667,workingMemoryTest,2020.2.10,Win32,60,,,,,,,,,,,,,,,,,,,,,,,,,,,,,,,,,,,,,,,,,,,,,,,,,,,,,,,,,,,,,,6,1.149,1,,,,,,2 x 3 =,smallFirst,smallProd,6,0,27,27,14,1,,,,,,,,,,,,,,,,,,,,,,,,,,,,,,,,,,,,,,,,,,,,,,,,,,
,,,,,,,,,751,001,BAC,2022-01-18_21h43.44.667,workingMemoryTest,2020.2.10,Win32,60,,,,,,,,,,,,,,,,,,,,,,,,,,,,,,,,,,,,,,,,,,,,,,,,,,,,,,,,,,,,,,20,1.0832,1,,,,,,5 x 4 =,largeFirst,smallProd,20,0,28,28,5,1,,,,,,,,,,,,,,,,,,,,,,,,,,,,,,,,,,,,,,,,,,,,,,,,,,
,,,,,,,,,751,001,BAC,2022-01-18_21h43.44.667,workingMemoryTest,2020.2.10,Win32,60,,,,,,,,,,,,,,,,,,,,,,,,,,,,,,,,,,,,,,,,,,,,,,,,,,,,,,,,,,,,,,16,1.3166,1,,,,,,4 x 4 =,tie,smallProd,16,0,29,29,28,1,,,,,,,,,,,,,,,,,,,,,,,,,,,,,,,,,,,,,,,,,,,,,,,,,,
,,,,,,,,,751,001,BAC,2022-01-18_21h43.44.667,workingMemoryTest,2020.2.10,Win32,60,,,,,,,,,,,,,,,,,,,,,,,,,,,,,,,,,,,,,,,,,,,,,,,,,,,,,,,,,,,,,,,,,,,,,,,,,,,,,,,0,1,1,1,1,multiplTwo.xlsx,,,,,,,,,,,,,,,,,,,,,,,,,,,,,,,,,,,,,,,,,,,,
,,,,,,,,,751,001,BAC,2022-01-18_21h43.44.667,workingMemoryTest,2020.2.10,Win32,60,,,,,,,,,,,,,,,,,,,,,,,,,,,,,,,,,,,,,,,,,,,,,,,,,,,,,,,,,,,,,,,,,,,,,,,,,,,,,,,,,,,,,0,0,0,0,1,,,,,,,,,,,,,,,,,,,,,,,,,,,,,,,,,,,,,,,
,,,,,,,,,751,001,BAC,2022-01-18_21h43.44.667,workingMemoryTest,2020.2.10,Win32,60,,,,,,,,,,,,,,,,,,,,,,,,,,,,,,,,,,,,,,,,,,,,,,,,,,,,,,0,1,1,1,1,1,0,0,,,,,,,,,,,,,,,,,,,,,,,,,,,,,,,,,,,,,,,,,,,,,,,,,,,,,,,,,,,,,,,,,,,
,,,,,,,,,751,001,BAC,2022-01-18_21h43.44.667,workingMemoryTest,2020.2.10,Win32,60,,,,,,,,,,,,,,,,,,,,,,,,,,,,,,,,,,,,,,,,,,,,,,,,,,,,,,,,,,,,,,,,,,,,,,,,,,,,,,,,,,,,,,,,,,TRUE,-0.026041667,-0.345052083,1,0,0,0,0,0,2,1,,3,3,,,,,,,,,,,,,,,,,,,,,,,,,
,,,,,,,,,751,001,BAC,2022-01-18_21h43.44.667,workingMemoryTest,2020.2.10,Win32,60,,,,,,,,,,,,,,,,,,,,,,,,,,,,,,,,,,,,,,,,,,,,,,,,,,,,,,,,,,,,,,,,,,,,,,,,,,,,,,,,,,,,,,,,,,TRUE,-0.040364583,-0.360677083,1,0,0,0,1,1,1,1,,3,3,,,,,,,,,,,,,,,,,,,,,,,,,
,,,,,,,,,751,001,BAC,2022-01-18_21h43.44.667,workingMemoryTest,2020.2.10,Win32,60,,,,,,,,,,,,,,,,,,,,,,,,,,,,,,,,,,,,,,,,,,,,,,,,,,,,,,,,,,,,,,,,,,,,,,,,,,,,,,,,,,,,,,,,,,TRUE,-0.00390625,-0.341145833,1,0,0,0,2,2,0,1,,3,3,,,,,,,,,,,,,,,,,,,,,,,,,
,,,,,,,,,751,001,BAC,2022-01-18_21h43.44.667,workingMemoryTest,2020.2.10,Win32,60,,,,,,,,,,,,,,,,,,,,,,,,,,,,,,,,,,,,,,,,,,,,,,,,,,,,,,,,,,,,,,,,,,,,,,,,,,,,,,,,,,,,,,,,,,,,,,,,,,,,,,2,2,TRUE,-0.063802083,-0.34765625,1,0,0,0,0,0,0,1,2,2,,,,,,,,,,,,
,,,,,,,,,751,001,BAC,2022-01-18_21h43.44.667,workingMemoryTest,2020.2.10,Win32,60,,,,,,,,,,,,,,,,,,,,,,,,,,,,,,,,,,,,,,,,,,,,,,,,,,,,,,,,,,,,,,,,,,,,,,,,,,,,,,,,,,,,,,,,,,,,,,,,,,,,,,2,2,TRUE,-0.059895833,-0.33203125,1,0,0,0,1,1,1,1,2,2,,,,,,,,,,,,
,,,,,,,,,751,001,BAC,2022-01-18_21h43.44.667,workingMemoryTest,2020.2.10,Win32,60,,,,,,,,,,,,,,,,,,,,,,,,,,,,,,,,,,,,,,,,,,,,,,,,,,,,,,,,,,,,,,,,,,,,,,,,,,,,,,,,,,,,,,,,,,,,,,,,,,,,,,2,2,TRUE,-0.065104167,-0.3203125,1,0,0,0,2,2,2,1,2,2,,,,,,,,,,,,
,,,,,,,,,751,001,BAC,2022-01-18_21h43.44.667,workingMemoryTest,2020.2.10,Win32,60,,,,,,,,,,,,,,,,,,,,,,,,,,,,,,,,,,,,,,,,,,,,,,,,,,,,,,,,,,,,,,,,,,,,,,,,,,,,,,,,,,,,,,,,,,,,,,,,,,,,,,,,,,,,,,,,,,,,,0,0,0,0,1,blockTwo.xlsx,Ready for the next set? ,,,,,
,,,,,,,,,751,001,BAC,2022-01-18_21h43.44.667,workingMemoryTest,2020.2.10,Win32,60,,,,,,,,,,,,,,,,,,,,,,,,,,,,,,,,,,,,,,,,,,,,,,,,,,,,,,,,,,,,,,,,,,,,,,,,,,,,,,,,,,,,,,,,,,,,,,,,,,,,,,3,3,TRUE,-0.045572917,-0.34375,1,0,0,0,0,0,0,1,3,2,,,,,,,,,,,,
,,,,,,,,,751,001,BAC,2022-01-18_21h43.44.667,workingMemoryTest,2020.2.10,Win32,60,,,,,,,,,,,,,,,,,,,,,,,,,,,,,,,,,,,,,,,,,,,,,,,,,,,,,,,,,,,,,,,,,,,,,,,,,,,,,,,,,,,,,,,,,,,,,,,,,,,,,,3,3,TRUE,-0.072916667,-0.350260417,1,0,0,0,1,1,1,1,3,2,,,,,,,,,,,,
,,,,,,,,,751,001,BAC,2022-01-18_21h43.44.667,workingMemoryTest,2020.2.10,Win32,60,,,,,,,,,,,,,,,,,,,,,,,,,,,,,,,,,,,,,,,,,,,,,,,,,,,,,,,,,,,,,,,,,,,,,,,,,,,,,,,,,,,,,,,,,,,,,,,,,,,,,,3,3,TRUE,-0.0859375,-0.356770833,1,0,0,0,2,2,2,1,3,2,,,,,,,,,,,,
,,,,,,,,,751,001,BAC,2022-01-18_21h43.44.667,workingMemoryTest,2020.2.10,Win32,60,,,,,,,,,,,,,,,,,,,,,,,,,,,,,,,,,,,,,,,,,,,,,,,,,,,,,,,,,,,,,,,,,,,,,,,,,,,,,,,,,,,,,,,,,,,,,,,,,,,,,,,,,,,,,,,,,,,,,0,1,1,1,1,blockThree.xlsx,Ready for the next set? ,,,,,
,,,,,,,,,751,001,BAC,2022-01-18_21h43.44.667,workingMemoryTest,2020.2.10,Win32,60,,,,,,,,,,,,,,,,,,,,,,,,,,,,,,,,,,,,,,,,,,,,,,,,,,,,,,,,,,,,,,,,,,,,,,,,,,,,,,,,,,,,,,,,,,,,,,,,,,,,,,3,3,TRUE,-0.087239583,-0.330729167,1,0,0,0,0,0,0,1,4,2,,,,,,,,,,,,
,,,,,,,,,751,001,BAC,2022-01-18_21h43.44.667,workingMemoryTest,2020.2.10,Win32,60,,,,,,,,,,,,,,,,,,,,,,,,,,,,,,,,,,,,,,,,,,,,,,,,,,,,,,,,,,,,,,,,,,,,,,,,,,,,,,,,,,,,,,,,,,,,,,,,,,,,,,3,3,TRUE,-0.078125,-0.33203125,1,0,0,0,1,1,1,1,4,2,,,,,,,,,,,,
,,,,,,,,,751,001,BAC,2022-01-18_21h43.44.667,workingMemoryTest,2020.2.10,Win32,60,,,,,,,,,,,,,,,,,,,,,,,,,,,,,,,,,,,,,,,,,,,,,,,,,,,,,,,,,,,,,,,,,,,,,,,,,,,,,,,,,,,,,,,,,,,,,,,,,,,,,,3,3,TRUE,-0.015625,-0.326822917,1,0,0,0,2,2,2,1,4,2,,,,,,,,,,,,
,,,,,,,,,751,001,BAC,2022-01-18_21h43.44.667,workingMemoryTest,2020.2.10,Win32,60,,,,,,,,,,,,,,,,,,,,,,,,,,,,,,,,,,,,,,,,,,,,,,,,,,,,,,,,,,,,,,,,,,,,,,,,,,,,,,,,,,,,,,,,,,,,,,,,,,,,,,,,,,,,,,,,,,,,,0,2,2,2,1,blockFour.xlsx,Ready for the next set? ,,,,,
,,,,,,,,,751,001,BAC,2022-01-18_21h43.44.667,workingMemoryTest,2020.2.10,Win32,60,,,,,,,,,,,,,,,,,,,,,,,,,,,,,,,,,,,,,,,,,,,,,,,,,,,,,,,,,,,,,,,,,,,,,,,,,,,,,,,,,,,,,,,,,,,,,,,,,,,,,,4,4,TRUE,-0.049479167,-0.342447917,1,0,0,0,0,0,0,1,5,,,,,,,,,,,,,
,,,,,,,,,751,001,BAC,2022-01-18_21h43.44.667,workingMemoryTest,2020.2.10,Win32,60,,,,,,,,,,,,,,,,,,,,,,,,,,,,,,,,,,,,,,,,,,,,,,,,,,,,,,,,,,,,,,,,,,,,,,,,,,,,,,,,,,,,,,,,,,,,,,,,,,,,,,4,4,TRUE,0.015625,-0.341145833,1,0,0,0,1,1,1,1,5,,,,,,,,,,,,,
,,,,,,,,,751,001,BAC,2022-01-18_21h43.44.667,workingMemoryTest,2020.2.10,Win32,60,,,,,,,,,,,,,,,,,,,,,,,,,,,,,,,,,,,,,,,,,,,,,,,,,,,,,,,,,,,,,,,,,,,,,,,,,,,,,,,,,,,,,,,,,,,,,,,,,,,,,,4,4,TRUE,-0.055989583,-0.356770833,1,0,0,0,2,2,2,1,5,,,,,,,,,,,,,
,,,,,,,,,751,001,BAC,2022-01-18_21h43.44.667,workingMemoryTest,2020.2.10,Win32,60,,,,,,,,,,,,,,,,,,,,,,,,,,,,,,,,,,,,,,,,,,,,,,,,,,,,,,,,,,,,,,,,,,,,,,,,,,,,,,,,,,,,,,,,,,,,,,,,,,,,,,,,,,,,,,,,,,,,,0,3,3,3,1,blockFive.xlsx,Ready for the next set? ,,,,,
,,,,,,,,,751,001,BAC,2022-01-18_21h43.44.667,workingMemoryTest,2020.2.10,Win32,60,,,,,,,,,,,,,,,,,,,,,,,,,,,,,,,,,,,,,,,,,,,,,,,,,,,,,,,,,,,,,,,,,,,,,,,,,,,,,,,,,,,,,,,,,,,,,,,,,,,,,,4,4,TRUE,0.016927083,-0.345052083,1,0,0,0,0,0,0,1,6,,,,,,,,,,,,,
,,,,,,,,,751,001,BAC,2022-01-18_21h43.44.667,workingMemoryTest,2020.2.10,Win32,60,,,,,,,,,,,,,,,,,,,,,,,,,,,,,,,,,,,,,,,,,,,,,,,,,,,,,,,,,,,,,,,,,,,,,,,,,,,,,,,,,,,,,,,,,,,,,,,,,,,,,,4,4,TRUE,0.024739583,-0.356770833,1,0,0,0,1,1,1,1,6,,,,,,,,,,,,,
,,,,,,,,,751,001,BAC,2022-01-18_21h43.44.667,workingMemoryTest,2020.2.10,Win32,60,,,,,,,,,,,,,,,,,,,,,,,,,,,,,,,,,,,,,,,,,,,,,,,,,,,,,,,,,,,,,,,,,,,,,,,,,,,,,,,,,,,,,,,,,,,,,,,,,,,,,,4,4,TRUE,-0.03515625,-0.328125,1,0,0,0,2,2,2,1,6,,,,,,,,,,,,,
,,,,,,,,,751,001,BAC,2022-01-18_21h43.44.667,workingMemoryTest,2020.2.10,Win32,60,,,,,,,,,,,,,,,,,,,,,,,,,,,,,,,,,,,,,,,,,,,,,,,,,,,,,,,,,,,,,,,,,,,,,,,,,,,,,,,,,,,,,,,,,,,,,,,,,,,,,,,,,,,,,,,,,,,,,0,4,4,4,1,blockSix.xlsx,Ready for the next set? ,,,,,
,,,,,,,,,751,001,BAC,2022-01-18_21h43.44.667,workingMemoryTest,2020.2.10,Win32,60,,,,,,,,,,,,,,,,,,,,,,,,,,,,,,,,,,,,,,,,,,,,,,,,,,,,,,,,,,,,,,,,,,,,,,,,,,,,,,,,,,,,,,,,,,,,,,,,,,,,,,4,4,TRUE,0.014322917,-0.341145833,1,0,0,0,0,0,0,1,7,,,,,,,,,,,,,
,,,,,,,,,751,001,BAC,2022-01-18_21h43.44.667,workingMemoryTest,2020.2.10,Win32,60,,,,,,,,,,,,,,,,,,,,,,,,,,,,,,,,,,,,,,,,,,,,,,,,,,,,,,,,,,,,,,,,,,,,,,,,,,,,,,,,,,,,,,,,,,,,,,,,,,,,,,4,4,TRUE,-0.014322917,-0.352864583,1,0,0,0,1,1,1,1,7,,,,,,,,,,,,,
,,,,,,,,,751,001,BAC,2022-01-18_21h43.44.667,workingMemoryTest,2020.2.10,Win32,60,,,,,,,,,,,,,,,,,,,,,,,,,,,,,,,,,,,,,,,,,,,,,,,,,,,,,,,,,,,,,,,,,,,,,,,,,,,,,,,,,,,,,,,,,,,,,,,,,,,,,,4,4,TRUE,-0.0390625,-0.373697917,1,0,0,0,2,2,2,1,7,,,,,,,,,,,,,
,,,,,,,,,751,001,BAC,2022-01-18_21h43.44.667,workingMemoryTest,2020.2.10,Win32,60,,,,,,,,,,,,,,,,,,,,,,,,,,,,,,,,,,,,,,,,,,,,,,,,,,,,,,,,,,,,,,,,,,,,,,,,,,,,,,,,,,,,,,,,,,,,,,,,,,,,,,,,,,,,,,,,,,,,,0,5,5,5,1,blockSeven.xlsx,Ready for the next set? ,,,,,
,,,,,,,,,751,001,BAC,2022-01-18_21h43.44.667,workingMemoryTest,2020.2.10,Win32,60,,,,,,,,,,,,,,,,,,,,,,,,,,,,,,,,,,,,,,,,,,,,,,,,,,,,,,,,,,,,,,,,,,,,,,,,,,,,,,,,,,,,,,,,,,,,,,,,,,,,,,4,4,TRUE,-0.053385417,-0.3515625,1,0,0,0,0,0,0,1,8,,,,,,,,,,,,,
,,,,,,,,,751,001,BAC,2022-01-18_21h43.44.667,workingMemoryTest,2020.2.10,Win32,60,,,,,,,,,,,,,,,,,,,,,,,,,,,,,,,,,,,,,,,,,,,,,,,,,,,,,,,,,,,,,,,,,,,,,,,,,,,,,,,,,,,,,,,,,,,,,,,,,,,,,,4,4,TRUE,-0.033854167,-0.34765625,1,0,0,0,1,1,1,1,8,,,,,,,,,,,,,
,,,,,,,,,751,001,BAC,2022-01-18_21h43.44.667,workingMemoryTest,2020.2.10,Win32,60,,,,,,,,,,,,,,,,,,,,,,,,,,,,,,,,,,,,,,,,,,,,,,,,,,,,,,,,,,,,,,,,,,,,,,,,,,,,,,,,,,,,,,,,,,,,,,,,,,,,,,4,4,TRUE,-0.053385417,-0.358072917,1,0,0,0,2,2,2,1,8,,,,,,,,,,,,,
,,,,,,,,,751,001,BAC,2022-01-18_21h43.44.667,workingMemoryTest,2020.2.10,Win32,60,,,,,,,,,,,,,,,,,,,,,,,,,,,,,,,,,,,,,,,,,,,,,,,,,,,,,,,,,,,,,,,,,,,,,,,,,,,,,,,,,,,,,,,,,,,,,,,,,,,,,,,,,,,,,,,,,,,,,0,6,6,6,1,blockEight.xlsx,Ready for the next set? ,,,,,
,,,,,,,,,751,001,BAC,2022-01-18_21h43.44.667,workingMemoryTest,2020.2.10,Win32,60,,,,,,,,,,,,,,,,,,,,,,,,,,,,,,,,,,,,,,,,,,,,,,,,,,,,,,,,,,,,,,,,,,,,,,,,,,,,,,,,,,,,,,,,,,,,,,,,,,,,,,5,5,FALSE,0.014322917,-0.361979167,1,0,0,0,0,0,0,1,9,,,,,,,,,,,,,
,,,,,,,,,751,001,BAC,2022-01-18_21h43.44.667,workingMemoryTest,2020.2.10,Win32,60,,,,,,,,,,,,,,,,,,,,,,,,,,,,,,,,,,,,,,,,,,,,,,,,,,,,,,,,,,,,,,,,,,,,,,,,,,,,,,,,,,,,,,,,,,,,,,,,,,,,,,5,5,FALSE,-0.061197917,-0.34765625,1,0,0,0,1,1,1,1,9,,,,,,,,,,,,,
,,,,,,,,,751,001,BAC,2022-01-18_21h43.44.667,workingMemoryTest,2020.2.10,Win32,60,,,,,,,,,,,,,,,,,,,,,,,,,,,,,,,,,,,,,,,,,,,,,,,,,,,,,,,,,,,,,,,,,,,,,,,,,,,,,,,,,,,,,,,,,,,,,,,,,,,,,,,,,,,,,,,,,,,,,,,,,,,,0,0,0,0,1
,,,,,,,,,751,001,BAC,2022-01-18_21h43.44.667,workingMemoryTest,2020.2.10,Win32,60,,,,,,,,,,,,,,,,,,,,,,,,,,,,,,,,,,,,,,,,,,,,,,,,,,,,,,0,2,2,2,1,0,0,1,,,,,,,,,,,,,,,,,,,,,,,,,,,,,,,,,,,,,,,,,,,,,,,,,,,,,,,,,,,,,,,,,,,
