typedNumber,typingRT,answerCorr,typingLoopPract.thisRepN,typingLoopPract.thisTrialN,typingLoopPract.thisN,typingLoopPract.thisIndex,typingLoopPract.ran,productNo,participant,session,group,date,expName,psychopyVersion,OS,frameRate,typingRTrial.thisRepN,typingRTrial.thisTrialN,typingRTrial.thisN,typingRTrial.thisIndex,typingRTrial.ran,typedAnswer,multiplyRT,multiplyCorr,multiLoopPrac.thisRepN,multiLoopPrac.thisTrialN,multiLoopPrac.thisN,multiLoopPrac.thisIndex,multiLoopPrac.ran,problem,OperandType,productType,Answer,multiRTrial.thisRepN,multiRTrial.thisTrialN,multiRTrial.thisN,multiRTrial.thisIndex,multiRTrial.ran,trials_2.thisRepN,trials_2.thisTrialN,trials_2.thisN,trials_2.thisIndex,trials_2.ran,fileee,TaskA.thisRepN,TaskA.thisTrialN,TaskA.thisN,TaskA.thisIndex,TaskA.ran,TaskOrderCond.thisRepN,TaskOrderCond.thisTrialN,TaskOrderCond.thisN,TaskOrderCond.thisIndex,TaskOrderCond.ran,nRepsTask1,nRepsTask2,nRepsTask3,typedAudioPrac,audioPracRT,audioPrCorr,audioLoopPrac.thisRepN,audioLoopPrac.thisTrialN,audioLoopPrac.thisN,audioLoopPrac.thisIndex,audioLoopPrac.ran,audiospan,digits_audio,soundsJS,EgnerDSresponse,EgnerDSrt,EgnerDSscore,audioRTrial.thisRepN,audioRTrial.thisTrialN,audioRTrial.thisN,audioRTrial.thisIndex,audioRTrial.ran,digitSpan,audioCondLoop.thisRepN,audioCondLoop.thisTrialN,audioCondLoop.thisN,audioCondLoop.thisIndex,audioCondLoop.ran,Condition,WAISDSresponse,WAISDSrt,WAISDSscore,audioRTrialwais.thisRepN,audioRTrialwais.thisTrialN,audioRTrialwais.thisN,audioRTrialwais.thisIndex,audioRTrialwais.ran,digitSpanWAIS,digits_audioWAIS,soundsWAIS,audioCondLoopwais.thisRepN,audioCondLoopwais.thisTrialN,audioCondLoopwais.thisN,audioCondLoopwais.thisIndex,audioCondLoopwais.ran,ConditionWAIS,TaskB.thisRepN,TaskB.thisTrialN,TaskB.thisN,TaskB.thisIndex,TaskB.ran,correct,respMousePrac.x,respMousePrac.y,respMousePrac.leftButton,respMousePrac.midButton,respMousePrac.rightButton,vptLoopPrac.thisRepN,vptLoopPrac.thisTrialN,vptLoopPrac.thisN,vptLoopPrac.thisIndex,vptLoopPrac.ran,tiles,rows,cols,vptCorrect,respMouse.x,respMouse.y,respMouse.leftButton,respMouse.midButton,respMouse.rightButton,trials.thisRepN,trials.thisTrialN,trials.thisN,trials.thisIndex,trials.ran,noOfBlocks,blockDuration,conditionLoop.thisRepN,conditionLoop.thisTrialN,conditionLoop.thisN,conditionLoop.thisIndex,conditionLoop.ran,sheet,readyMsg,TaskC.thisRepN,TaskC.thisTrialN,TaskC.thisN,TaskC.thisIndex,TaskC.ran
41,1.816,1,0,0,0,1,1,41,784,001,ABC,2022-01-22_12h36.16.330,workingMemoryTest,2020.2.10,MacIntel,60,,,,,,,,,,,,,,,,,,,,,,,,,,,,,,,,,,,,,,,,,,,,,,,,,,,,,,,,,,,,,,,,,,,,,,,,,,,,,,,,,,,,,,,,,,,,,,,,,,,,,,,,,,,,,,,,,,,,,,,,,,,,,,,,
39,1.283,1,0,1,1,0,1,39,784,001,ABC,2022-01-22_12h36.16.330,workingMemoryTest,2020.2.10,MacIntel,60,,,,,,,,,,,,,,,,,,,,,,,,,,,,,,,,,,,,,,,,,,,,,,,,,,,,,,,,,,,,,,,,,,,,,,,,,,,,,,,,,,,,,,,,,,,,,,,,,,,,,,,,,,,,,,,,,,,,,,,,,,,,,,,,
59,1.383,1,0,2,2,2,1,59,784,001,ABC,2022-01-22_12h36.16.330,workingMemoryTest,2020.2.10,MacIntel,60,,,,,,,,,,,,,,,,,,,,,,,,,,,,,,,,,,,,,,,,,,,,,,,,,,,,,,,,,,,,,,,,,,,,,,,,,,,,,,,,,,,,,,,,,,,,,,,,,,,,,,,,,,,,,,,,,,,,,,,,,,,,,,,,
10,1.015,1,,,,,,10,784,001,ABC,2022-01-22_12h36.16.330,workingMemoryTest,2020.2.10,MacIntel,60,0,0,0,3,1,,,,,,,,,,,,,,,,,,,,,,,,,,,,,,,,,,,,,,,,,,,,,,,,,,,,,,,,,,,,,,,,,,,,,,,,,,,,,,,,,,,,,,,,,,,,,,,,,,,,,,,,,,,,,,,,,,,,,,,,,,,
9,0.968,1,,,,,,9,784,001,ABC,2022-01-22_12h36.16.330,workingMemoryTest,2020.2.10,MacIntel,60,0,1,1,1,1,,,,,,,,,,,,,,,,,,,,,,,,,,,,,,,,,,,,,,,,,,,,,,,,,,,,,,,,,,,,,,,,,,,,,,,,,,,,,,,,,,,,,,,,,,,,,,,,,,,,,,,,,,,,,,,,,,,,,,,,,,,
20,1.032,1,,,,,,20,784,001,ABC,2022-01-22_12h36.16.330,workingMemoryTest,2020.2.10,MacIntel,60,0,2,2,9,1,,,,,,,,,,,,,,,,,,,,,,,,,,,,,,,,,,,,,,,,,,,,,,,,,,,,,,,,,,,,,,,,,,,,,,,,,,,,,,,,,,,,,,,,,,,,,,,,,,,,,,,,,,,,,,,,,,,,,,,,,,,
72,0.999,1,,,,,,72,784,001,ABC,2022-01-22_12h36.16.330,workingMemoryTest,2020.2.10,MacIntel,60,0,3,3,27,1,,,,,,,,,,,,,,,,,,,,,,,,,,,,,,,,,,,,,,,,,,,,,,,,,,,,,,,,,,,,,,,,,,,,,,,,,,,,,,,,,,,,,,,,,,,,,,,,,,,,,,,,,,,,,,,,,,,,,,,,,,,
35,0.9,1,,,,,,35,784,001,ABC,2022-01-22_12h36.16.330,workingMemoryTest,2020.2.10,MacIntel,60,0,4,4,16,1,,,,,,,,,,,,,,,,,,,,,,,,,,,,,,,,,,,,,,,,,,,,,,,,,,,,,,,,,,,,,,,,,,,,,,,,,,,,,,,,,,,,,,,,,,,,,,,,,,,,,,,,,,,,,,,,,,,,,,,,,,,
32,0.933,1,,,,,,32,784,001,ABC,2022-01-22_12h36.16.330,workingMemoryTest,2020.2.10,MacIntel,60,0,5,5,15,1,,,,,,,,,,,,,,,,,,,,,,,,,,,,,,,,,,,,,,,,,,,,,,,,,,,,,,,,,,,,,,,,,,,,,,,,,,,,,,,,,,,,,,,,,,,,,,,,,,,,,,,,,,,,,,,,,,,,,,,,,,,
56,0.85,1,,,,,,56,784,001,ABC,2022-01-22_12h36.16.330,workingMemoryTest,2020.2.10,MacIntel,60,0,6,6,24,1,,,,,,,,,,,,,,,,,,,,,,,,,,,,,,,,,,,,,,,,,,,,,,,,,,,,,,,,,,,,,,,,,,,,,,,,,,,,,,,,,,,,,,,,,,,,,,,,,,,,,,,,,,,,,,,,,,,,,,,,,,,
64,0.917,1,,,,,,64,784,001,ABC,2022-01-22_12h36.16.330,workingMemoryTest,2020.2.10,MacIntel,60,0,7,7,26,1,,,,,,,,,,,,,,,,,,,,,,,,,,,,,,,,,,,,,,,,,,,,,,,,,,,,,,,,,,,,,,,,,,,,,,,,,,,,,,,,,,,,,,,,,,,,,,,,,,,,,,,,,,,,,,,,,,,,,,,,,,,
21,0.85,1,,,,,,21,784,001,ABC,2022-01-22_12h36.16.330,workingMemoryTest,2020.2.10,MacIntel,60,0,8,8,10,1,,,,,,,,,,,,,,,,,,,,,,,,,,,,,,,,,,,,,,,,,,,,,,,,,,,,,,,,,,,,,,,,,,,,,,,,,,,,,,,,,,,,,,,,,,,,,,,,,,,,,,,,,,,,,,,,,,,,,,,,,,,
49,1.134,1,,,,,,49,784,001,ABC,2022-01-22_12h36.16.330,workingMemoryTest,2020.2.10,MacIntel,60,0,9,9,22,1,,,,,,,,,,,,,,,,,,,,,,,,,,,,,,,,,,,,,,,,,,,,,,,,,,,,,,,,,,,,,,,,,,,,,,,,,,,,,,,,,,,,,,,,,,,,,,,,,,,,,,,,,,,,,,,,,,,,,,,,,,,
8,0.85,1,,,,,,8,784,001,ABC,2022-01-22_12h36.16.330,workingMemoryTest,2020.2.10,MacIntel,60,0,10,10,2,1,,,,,,,,,,,,,,,,,,,,,,,,,,,,,,,,,,,,,,,,,,,,,,,,,,,,,,,,,,,,,,,,,,,,,,,,,,,,,,,,,,,,,,,,,,,,,,,,,,,,,,,,,,,,,,,,,,,,,,,,,,,
40,0.95,1,,,,,,40,784,001,ABC,2022-01-22_12h36.16.330,workingMemoryTest,2020.2.10,MacIntel,60,0,11,11,18,1,,,,,,,,,,,,,,,,,,,,,,,,,,,,,,,,,,,,,,,,,,,,,,,,,,,,,,,,,,,,,,,,,,,,,,,,,,,,,,,,,,,,,,,,,,,,,,,,,,,,,,,,,,,,,,,,,,,,,,,,,,,
6,0.767,1,,,,,,6,784,001,ABC,2022-01-22_12h36.16.330,workingMemoryTest,2020.2.10,MacIntel,60,0,12,12,0,1,,,,,,,,,,,,,,,,,,,,,,,,,,,,,,,,,,,,,,,,,,,,,,,,,,,,,,,,,,,,,,,,,,,,,,,,,,,,,,,,,,,,,,,,,,,,,,,,,,,,,,,,,,,,,,,,,,,,,,,,,,,
28,1.033,1,,,,,,28,784,001,ABC,2022-01-22_12h36.16.330,workingMemoryTest,2020.2.10,MacIntel,60,0,13,13,13,1,,,,,,,,,,,,,,,,,,,,,,,,,,,,,,,,,,,,,,,,,,,,,,,,,,,,,,,,,,,,,,,,,,,,,,,,,,,,,,,,,,,,,,,,,,,,,,,,,,,,,,,,,,,,,,,,,,,,,,,,,,,
63,0.95,1,,,,,,63,784,001,ABC,2022-01-22_12h36.16.330,workingMemoryTest,2020.2.10,MacIntel,60,0,14,14,25,1,,,,,,,,,,,,,,,,,,,,,,,,,,,,,,,,,,,,,,,,,,,,,,,,,,,,,,,,,,,,,,,,,,,,,,,,,,,,,,,,,,,,,,,,,,,,,,,,,,,,,,,,,,,,,,,,,,,,,,,,,,,
16,0.784,1,,,,,,16,784,001,ABC,2022-01-22_12h36.16.330,workingMemoryTest,2020.2.10,MacIntel,60,0,15,15,7,1,,,,,,,,,,,,,,,,,,,,,,,,,,,,,,,,,,,,,,,,,,,,,,,,,,,,,,,,,,,,,,,,,,,,,,,,,,,,,,,,,,,,,,,,,,,,,,,,,,,,,,,,,,,,,,,,,,,,,,,,,,,
54,1.099,1,,,,,,54,784,001,ABC,2022-01-22_12h36.16.330,workingMemoryTest,2020.2.10,MacIntel,60,0,16,16,23,1,,,,,,,,,,,,,,,,,,,,,,,,,,,,,,,,,,,,,,,,,,,,,,,,,,,,,,,,,,,,,,,,,,,,,,,,,,,,,,,,,,,,,,,,,,,,,,,,,,,,,,,,,,,,,,,,,,,,,,,,,,,
12,0.666,1,,,,,,12,784,001,ABC,2022-01-22_12h36.16.330,workingMemoryTest,2020.2.10,MacIntel,60,0,17,17,4,1,,,,,,,,,,,,,,,,,,,,,,,,,,,,,,,,,,,,,,,,,,,,,,,,,,,,,,,,,,,,,,,,,,,,,,,,,,,,,,,,,,,,,,,,,,,,,,,,,,,,,,,,,,,,,,,,,,,,,,,,,,,
24,0.717,1,,,,,,24,784,001,ABC,2022-01-22_12h36.16.330,workingMemoryTest,2020.2.10,MacIntel,60,0,18,18,11,1,,,,,,,,,,,,,,,,,,,,,,,,,,,,,,,,,,,,,,,,,,,,,,,,,,,,,,,,,,,,,,,,,,,,,,,,,,,,,,,,,,,,,,,,,,,,,,,,,,,,,,,,,,,,,,,,,,,,,,,,,,,
45,0.716,1,,,,,,45,784,001,ABC,2022-01-22_12h36.16.330,workingMemoryTest,2020.2.10,MacIntel,60,0,19,19,20,1,,,,,,,,,,,,,,,,,,,,,,,,,,,,,,,,,,,,,,,,,,,,,,,,,,,,,,,,,,,,,,,,,,,,,,,,,,,,,,,,,,,,,,,,,,,,,,,,,,,,,,,,,,,,,,,,,,,,,,,,,,,
42,0.766,1,,,,,,42,784,001,ABC,2022-01-22_12h36.16.330,workingMemoryTest,2020.2.10,MacIntel,60,0,20,20,19,1,,,,,,,,,,,,,,,,,,,,,,,,,,,,,,,,,,,,,,,,,,,,,,,,,,,,,,,,,,,,,,,,,,,,,,,,,,,,,,,,,,,,,,,,,,,,,,,,,,,,,,,,,,,,,,,,,,,,,,,,,,,
18,0.95,1,,,,,,18,784,001,ABC,2022-01-22_12h36.16.330,workingMemoryTest,2020.2.10,MacIntel,60,0,21,21,8,1,,,,,,,,,,,,,,,,,,,,,,,,,,,,,,,,,,,,,,,,,,,,,,,,,,,,,,,,,,,,,,,,,,,,,,,,,,,,,,,,,,,,,,,,,,,,,,,,,,,,,,,,,,,,,,,,,,,,,,,,,,,
48,0.932,1,,,,,,48,784,001,ABC,2022-01-22_12h36.16.330,workingMemoryTest,2020.2.10,MacIntel,60,0,22,22,21,1,,,,,,,,,,,,,,,,,,,,,,,,,,,,,,,,,,,,,,,,,,,,,,,,,,,,,,,,,,,,,,,,,,,,,,,,,,,,,,,,,,,,,,,,,,,,,,,,,,,,,,,,,,,,,,,,,,,,,,,,,,,
14,0.733,1,,,,,,14,784,001,ABC,2022-01-22_12h36.16.330,workingMemoryTest,2020.2.10,MacIntel,60,0,23,23,5,1,,,,,,,,,,,,,,,,,,,,,,,,,,,,,,,,,,,,,,,,,,,,,,,,,,,,,,,,,,,,,,,,,,,,,,,,,,,,,,,,,,,,,,,,,,,,,,,,,,,,,,,,,,,,,,,,,,,,,,,,,,,
30,0.851,1,,,,,,30,784,001,ABC,2022-01-22_12h36.16.330,workingMemoryTest,2020.2.10,MacIntel,60,0,24,24,14,1,,,,,,,,,,,,,,,,,,,,,,,,,,,,,,,,,,,,,,,,,,,,,,,,,,,,,,,,,,,,,,,,,,,,,,,,,,,,,,,,,,,,,,,,,,,,,,,,,,,,,,,,,,,,,,,,,,,,,,,,,,,
27,0.851,1,,,,,,27,784,001,ABC,2022-01-22_12h36.16.330,workingMemoryTest,2020.2.10,MacIntel,60,0,25,25,12,1,,,,,,,,,,,,,,,,,,,,,,,,,,,,,,,,,,,,,,,,,,,,,,,,,,,,,,,,,,,,,,,,,,,,,,,,,,,,,,,,,,,,,,,,,,,,,,,,,,,,,,,,,,,,,,,,,,,,,,,,,,,
15,0.668,1,,,,,,15,784,001,ABC,2022-01-22_12h36.16.330,workingMemoryTest,2020.2.10,MacIntel,60,0,26,26,6,1,,,,,,,,,,,,,,,,,,,,,,,,,,,,,,,,,,,,,,,,,,,,,,,,,,,,,,,,,,,,,,,,,,,,,,,,,,,,,,,,,,,,,,,,,,,,,,,,,,,,,,,,,,,,,,,,,,,,,,,,,,,
36,1.116,1,,,,,,36,784,001,ABC,2022-01-22_12h36.16.330,workingMemoryTest,2020.2.10,MacIntel,60,0,27,27,17,1,,,,,,,,,,,,,,,,,,,,,,,,,,,,,,,,,,,,,,,,,,,,,,,,,,,,,,,,,,,,,,,,,,,,,,,,,,,,,,,,,,,,,,,,,,,,,,,,,,,,,,,,,,,,,,,,,,,,,,,,,,,
,,,,,,,,,784,001,ABC,2022-01-22_12h36.16.330,workingMemoryTest,2020.2.10,MacIntel,60,,,,,,33,1.099,1,0,0,0,2,1,3 x 11 =,NA,practiceQ,33,,,,,,,,,,,,,,,,,,,,,,,,,,,,,,,,,,,,,,,,,,,,,,,,,,,,,,,,,,,,,,,,,,,,,,,,,,,,,,,,,,,,,,,,,,,,,,,,,,,,,,,,,,,,,,,
,,,,,,,,,784,001,ABC,2022-01-22_12h36.16.330,workingMemoryTest,2020.2.10,MacIntel,60,,,,,,50,1.601,1,0,1,1,1,1,5 x 10 =,NA,practiceQ,50,,,,,,,,,,,,,,,,,,,,,,,,,,,,,,,,,,,,,,,,,,,,,,,,,,,,,,,,,,,,,,,,,,,,,,,,,,,,,,,,,,,,,,,,,,,,,,,,,,,,,,,,,,,,,,,
,,,,,,,,,784,001,ABC,2022-01-22_12h36.16.330,workingMemoryTest,2020.2.10,MacIntel,60,,,,,,7,1.233,1,0,2,2,0,1,1 x 7 =,NA,practiceQ,7,,,,,,,,,,,,,,,,,,,,,,,,,,,,,,,,,,,,,,,,,,,,,,,,,,,,,,,,,,,,,,,,,,,,,,,,,,,,,,,,,,,,,,,,,,,,,,,,,,,,,,,,,,,,,,,
,,,,,,,,,784,001,ABC,2022-01-22_12h36.16.330,workingMemoryTest,2020.2.10,MacIntel,60,,,,,,42,1.633,1,,,,,,6 x 7 =,smallFirst,largeProd,42,0,0,0,23,1,,,,,,,,,,,,,,,,,,,,,,,,,,,,,,,,,,,,,,,,,,,,,,,,,,,,,,,,,,,,,,,,,,,,,,,,,,,,,,,,,,,,,,,,,,,,,,,,,,,,,,,,,,
,,,,,,,,,784,001,ABC,2022-01-22_12h36.16.330,workingMemoryTest,2020.2.10,MacIntel,60,,,,,,36,1.314,1,,,,,,9 x 4 =,largeFirst,largeProd,36,0,1,1,8,1,,,,,,,,,,,,,,,,,,,,,,,,,,,,,,,,,,,,,,,,,,,,,,,,,,,,,,,,,,,,,,,,,,,,,,,,,,,,,,,,,,,,,,,,,,,,,,,,,,,,,,,,,,
,,,,,,,,,784,001,ABC,2022-01-22_12h36.16.330,workingMemoryTest,2020.2.10,MacIntel,60,,,,,,27,2.082,1,,,,,,3 x 9 =,smallFirst,largeProd,27,0,2,2,24,1,,,,,,,,,,,,,,,,,,,,,,,,,,,,,,,,,,,,,,,,,,,,,,,,,,,,,,,,,,,,,,,,,,,,,,,,,,,,,,,,,,,,,,,,,,,,,,,,,,,,,,,,,,
,,,,,,,,,784,001,ABC,2022-01-22_12h36.16.330,workingMemoryTest,2020.2.10,MacIntel,60,,,,,,54,1.582,1,,,,,,9 x 6 =,largeFirst,largeProd,54,0,3,3,9,1,,,,,,,,,,,,,,,,,,,,,,,,,,,,,,,,,,,,,,,,,,,,,,,,,,,,,,,,,,,,,,,,,,,,,,,,,,,,,,,,,,,,,,,,,,,,,,,,,,,,,,,,,,
,,,,,,,,,784,001,ABC,2022-01-22_12h36.16.330,workingMemoryTest,2020.2.10,MacIntel,60,,,,,,24,1.035,1,,,,,,4 x 6 =,smallFirst,smallProd,24,0,4,4,20,1,,,,,,,,,,,,,,,,,,,,,,,,,,,,,,,,,,,,,,,,,,,,,,,,,,,,,,,,,,,,,,,,,,,,,,,,,,,,,,,,,,,,,,,,,,,,,,,,,,,,,,,,,,
,,,,,,,,,784,001,ABC,2022-01-22_12h36.16.330,workingMemoryTest,2020.2.10,MacIntel,60,,,,,,32,1.55,1,,,,,,4 x 8 =,smallFirst,largeProd,32,0,5,5,22,1,,,,,,,,,,,,,,,,,,,,,,,,,,,,,,,,,,,,,,,,,,,,,,,,,,,,,,,,,,,,,,,,,,,,,,,,,,,,,,,,,,,,,,,,,,,,,,,,,,,,,,,,,,
,,,,,,,,,784,001,ABC,2022-01-22_12h36.16.330,workingMemoryTest,2020.2.10,MacIntel,60,,,,,,14,1.05,1,,,,,,2 x 7 =,smallFirst,smallProd,14,0,6,6,18,1,,,,,,,,,,,,,,,,,,,,,,,,,,,,,,,,,,,,,,,,,,,,,,,,,,,,,,,,,,,,,,,,,,,,,,,,,,,,,,,,,,,,,,,,,,,,,,,,,,,,,,,,,,
,,,,,,,,,784,001,ABC,2022-01-22_12h36.16.330,workingMemoryTest,2020.2.10,MacIntel,60,,,,,,56,1.866,1,,,,,,8 x 7 =,largeFirst,largeProd,56,0,7,7,10,1,,,,,,,,,,,,,,,,,,,,,,,,,,,,,,,,,,,,,,,,,,,,,,,,,,,,,,,,,,,,,,,,,,,,,,,,,,,,,,,,,,,,,,,,,,,,,,,,,,,,,,,,,,
,,,,,,,,,784,001,ABC,2022-01-22_12h36.16.330,workingMemoryTest,2020.2.10,MacIntel,60,,,,,,35,1.183,1,,,,,,5 x 7 =,smallFirst,largeProd,35,0,8,8,25,1,,,,,,,,,,,,,,,,,,,,,,,,,,,,,,,,,,,,,,,,,,,,,,,,,,,,,,,,,,,,,,,,,,,,,,,,,,,,,,,,,,,,,,,,,,,,,,,,,,,,,,,,,,
,,,,,,,,,784,001,ABC,2022-01-22_12h36.16.330,workingMemoryTest,2020.2.10,MacIntel,60,,,,,,30,1.384,1,,,,,,5 x 6 =,smallFirst,largeProd,30,0,9,9,27,1,,,,,,,,,,,,,,,,,,,,,,,,,,,,,,,,,,,,,,,,,,,,,,,,,,,,,,,,,,,,,,,,,,,,,,,,,,,,,,,,,,,,,,,,,,,,,,,,,,,,,,,,,,
,,,,,,,,,784,001,ABC,2022-01-22_12h36.16.330,workingMemoryTest,2020.2.10,MacIntel,60,,,,,,40,1.665,1,,,,,,8 x 5 =,largeFirst,largeProd,40,0,10,10,11,1,,,,,,,,,,,,,,,,,,,,,,,,,,,,,,,,,,,,,,,,,,,,,,,,,,,,,,,,,,,,,,,,,,,,,,,,,,,,,,,,,,,,,,,,,,,,,,,,,,,,,,,,,,
,,,,,,,,,784,001,ABC,2022-01-22_12h36.16.330,workingMemoryTest,2020.2.10,MacIntel,60,,,,,,63,1.283,1,,,,,,7 x 9 =,smallFirst,largeProd,63,0,11,11,26,1,,,,,,,,,,,,,,,,,,,,,,,,,,,,,,,,,,,,,,,,,,,,,,,,,,,,,,,,,,,,,,,,,,,,,,,,,,,,,,,,,,,,,,,,,,,,,,,,,,,,,,,,,,
,,,,,,,,,784,001,ABC,2022-01-22_12h36.16.330,workingMemoryTest,2020.2.10,MacIntel,60,,,,,,28,1.632,1,,,,,,7 x 4 =,largeFirst,largeProd,28,0,12,12,7,1,,,,,,,,,,,,,,,,,,,,,,,,,,,,,,,,,,,,,,,,,,,,,,,,,,,,,,,,,,,,,,,,,,,,,,,,,,,,,,,,,,,,,,,,,,,,,,,,,,,,,,,,,,
,,,,,,,,,784,001,ABC,2022-01-22_12h36.16.330,workingMemoryTest,2020.2.10,MacIntel,60,,,,,,15,0.983,1,,,,,,5 x 3 =,largeFirst,smallProd,15,0,13,13,1,1,,,,,,,,,,,,,,,,,,,,,,,,,,,,,,,,,,,,,,,,,,,,,,,,,,,,,,,,,,,,,,,,,,,,,,,,,,,,,,,,,,,,,,,,,,,,,,,,,,,,,,,,,,
,,,,,,,,,784,001,ABC,2022-01-22_12h36.16.330,workingMemoryTest,2020.2.10,MacIntel,60,,,,,,45,1.483,1,,,,,,5 x 9 =,smallFirst,largeProd,45,0,14,14,21,1,,,,,,,,,,,,,,,,,,,,,,,,,,,,,,,,,,,,,,,,,,,,,,,,,,,,,,,,,,,,,,,,,,,,,,,,,,,,,,,,,,,,,,,,,,,,,,,,,,,,,,,,,,
,,,,,,,,,784,001,ABC,2022-01-22_12h36.16.330,workingMemoryTest,2020.2.10,MacIntel,60,,,,,,10,1.116,1,,,,,,2 x 5 =,smallFirst,smallProd,10,0,15,15,16,1,,,,,,,,,,,,,,,,,,,,,,,,,,,,,,,,,,,,,,,,,,,,,,,,,,,,,,,,,,,,,,,,,,,,,,,,,,,,,,,,,,,,,,,,,,,,,,,,,,,,,,,,,,
,,,,,,,,,784,001,ABC,2022-01-22_12h36.16.330,workingMemoryTest,2020.2.10,MacIntel,60,,,,,,16,2.282,1,,,,,,2 x 8 =,smallFirst,smallProd,16,0,16,16,19,1,,,,,,,,,,,,,,,,,,,,,,,,,,,,,,,,,,,,,,,,,,,,,,,,,,,,,,,,,,,,,,,,,,,,,,,,,,,,,,,,,,,,,,,,,,,,,,,,,,,,,,,,,,
,,,,,,,,,784,001,ABC,2022-01-22_12h36.16.330,workingMemoryTest,2020.2.10,MacIntel,60,,,,,,12,1.283,1,,,,,,6 x 2 =,largeFirst,smallProd,12,0,17,17,2,1,,,,,,,,,,,,,,,,,,,,,,,,,,,,,,,,,,,,,,,,,,,,,,,,,,,,,,,,,,,,,,,,,,,,,,,,,,,,,,,,,,,,,,,,,,,,,,,,,,,,,,,,,,
,,,,,,,,,784,001,ABC,2022-01-22_12h36.16.330,workingMemoryTest,2020.2.10,MacIntel,60,,,,,,21,0.915,1,,,,,,7 x 3 =,largeFirst,smallProd,21,0,18,18,3,1,,,,,,,,,,,,,,,,,,,,,,,,,,,,,,,,,,,,,,,,,,,,,,,,,,,,,,,,,,,,,,,,,,,,,,,,,,,,,,,,,,,,,,,,,,,,,,,,,,,,,,,,,,
,,,,,,,,,784,001,ABC,2022-01-22_12h36.16.330,workingMemoryTest,2020.2.10,MacIntel,60,,,,,,72,3,1,,,,,,9 x 8 =,largeFirst,largeProd,72,0,19,19,12,1,,,,,,,,,,,,,,,,,,,,,,,,,,,,,,,,,,,,,,,,,,,,,,,,,,,,,,,,,,,,,,,,,,,,,,,,,,,,,,,,,,,,,,,,,,,,,,,,,,,,,,,,,,
,,,,,,,,,784,001,ABC,2022-01-22_12h36.16.330,workingMemoryTest,2020.2.10,MacIntel,60,,,,,,20,1.55,1,,,,,,5 x 4 =,largeFirst,smallProd,20,0,20,20,5,1,,,,,,,,,,,,,,,,,,,,,,,,,,,,,,,,,,,,,,,,,,,,,,,,,,,,,,,,,,,,,,,,,,,,,,,,,,,,,,,,,,,,,,,,,,,,,,,,,,,,,,,,,,
,,,,,,,,,784,001,ABC,2022-01-22_12h36.16.330,workingMemoryTest,2020.2.10,MacIntel,60,,,,,,12,0.984,1,,,,,,3 x 4 =,smallFirst,smallProd,12,0,21,21,15,1,,,,,,,,,,,,,,,,,,,,,,,,,,,,,,,,,,,,,,,,,,,,,,,,,,,,,,,,,,,,,,,,,,,,,,,,,,,,,,,,,,,,,,,,,,,,,,,,,,,,,,,,,,
,,,,,,,,,784,001,ABC,2022-01-22_12h36.16.330,workingMemoryTest,2020.2.10,MacIntel,60,,,,,,8,1.184,1,,,,,,4 x 2 =,largeFirst,smallProd,8,0,22,22,0,1,,,,,,,,,,,,,,,,,,,,,,,,,,,,,,,,,,,,,,,,,,,,,,,,,,,,,,,,,,,,,,,,,,,,,,,,,,,,,,,,,,,,,,,,,,,,,,,,,,,,,,,,,,
,,,,,,,,,784,001,ABC,2022-01-22_12h36.16.330,workingMemoryTest,2020.2.10,MacIntel,60,,,,,,64,1.184,1,,,,,,8 x 8 =,tie,largeProd,64,0,23,23,29,1,,,,,,,,,,,,,,,,,,,,,,,,,,,,,,,,,,,,,,,,,,,,,,,,,,,,,,,,,,,,,,,,,,,,,,,,,,,,,,,,,,,,,,,,,,,,,,,,,,,,,,,,,,
,,,,,,,,,784,001,ABC,2022-01-22_12h36.16.330,workingMemoryTest,2020.2.10,MacIntel,60,,,,,,16,1.083,1,,,,,,4 x 4 =,tie,smallProd,16,0,24,24,28,1,,,,,,,,,,,,,,,,,,,,,,,,,,,,,,,,,,,,,,,,,,,,,,,,,,,,,,,,,,,,,,,,,,,,,,,,,,,,,,,,,,,,,,,,,,,,,,,,,,,,,,,,,,
,,,,,,,,,784,001,ABC,2022-01-22_12h36.16.330,workingMemoryTest,2020.2.10,MacIntel,60,,,,,,24,1.717,1,,,,,,8 x 3 =,largeFirst,smallProd,24,0,25,25,4,1,,,,,,,,,,,,,,,,,,,,,,,,,,,,,,,,,,,,,,,,,,,,,,,,,,,,,,,,,,,,,,,,,,,,,,,,,,,,,,,,,,,,,,,,,,,,,,,,,,,,,,,,,,
,,,,,,,,,784,001,ABC,2022-01-22_12h36.16.330,workingMemoryTest,2020.2.10,MacIntel,60,,,,,,18,1.549,1,,,,,,3 x 6 =,smallFirst,smallProd,18,0,26,26,17,1,,,,,,,,,,,,,,,,,,,,,,,,,,,,,,,,,,,,,,,,,,,,,,,,,,,,,,,,,,,,,,,,,,,,,,,,,,,,,,,,,,,,,,,,,,,,,,,,,,,,,,,,,,
,,,,,,,,,784,001,ABC,2022-01-22_12h36.16.330,workingMemoryTest,2020.2.10,MacIntel,60,,,,,,48,1.967,1,,,,,,8 x 6 =,largeFirst,largeProd,48,0,27,27,13,1,,,,,,,,,,,,,,,,,,,,,,,,,,,,,,,,,,,,,,,,,,,,,,,,,,,,,,,,,,,,,,,,,,,,,,,,,,,,,,,,,,,,,,,,,,,,,,,,,,,,,,,,,,
,,,,,,,,,784,001,ABC,2022-01-22_12h36.16.330,workingMemoryTest,2020.2.10,MacIntel,60,,,,,,6,1.216,1,,,,,,2 x 3 =,smallFirst,smallProd,6,0,28,28,14,1,,,,,,,,,,,,,,,,,,,,,,,,,,,,,,,,,,,,,,,,,,,,,,,,,,,,,,,,,,,,,,,,,,,,,,,,,,,,,,,,,,,,,,,,,,,,,,,,,,,,,,,,,,
,,,,,,,,,784,001,ABC,2022-01-22_12h36.16.330,workingMemoryTest,2020.2.10,MacIntel,60,,,,,,18,1.616,1,,,,,,9 x 2 =,largeFirst,smallProd,18,0,29,29,6,1,,,,,,,,,,,,,,,,,,,,,,,,,,,,,,,,,,,,,,,,,,,,,,,,,,,,,,,,,,,,,,,,,,,,,,,,,,,,,,,,,,,,,,,,,,,,,,,,,,,,,,,,,,
,,,,,,,,,784,001,ABC,2022-01-22_12h36.16.330,workingMemoryTest,2020.2.10,MacIntel,60,,,,,,,,,,,,,,,,,,,,,,,0,0,0,1,1,multiplTwo.xlsx,,,,,,,,,,,,,,,,,,,,,,,,,,,,,,,,,,,,,,,,,,,,,,,,,,,,,,,,,,,,,,,,,,,,,,,,,,,,,,,,,,,,,,,,,,,,,,,,,,,,
,,,,,,,,,784,001,ABC,2022-01-22_12h36.16.330,workingMemoryTest,2020.2.10,MacIntel,60,,,,,,72,3.133,1,,,,,,8 x 9 =,smallFirst,largeProd,72,0,0,0,24,1,,,,,,,,,,,,,,,,,,,,,,,,,,,,,,,,,,,,,,,,,,,,,,,,,,,,,,,,,,,,,,,,,,,,,,,,,,,,,,,,,,,,,,,,,,,,,,,,,,,,,,,,,,
,,,,,,,,,784,001,ABC,2022-01-22_12h36.16.330,workingMemoryTest,2020.2.10,MacIntel,60,,,,,,18,4.434,1,,,,,,6 x 3 =,largeFirst,smallProd,18,0,1,1,3,1,,,,,,,,,,,,,,,,,,,,,,,,,,,,,,,,,,,,,,,,,,,,,,,,,,,,,,,,,,,,,,,,,,,,,,,,,,,,,,,,,,,,,,,,,,,,,,,,,,,,,,,,,,
,,,,,,,,,784,001,ABC,2022-01-22_12h36.16.330,workingMemoryTest,2020.2.10,MacIntel,60,,,,,,48,1.5,1,,,,,,6 x 8 =,smallFirst,largeProd,48,0,2,2,21,1,,,,,,,,,,,,,,,,,,,,,,,,,,,,,,,,,,,,,,,,,,,,,,,,,,,,,,,,,,,,,,,,,,,,,,,,,,,,,,,,,,,,,,,,,,,,,,,,,,,,,,,,,,
,,,,,,,,,784,001,ABC,2022-01-22_12h36.16.330,workingMemoryTest,2020.2.10,MacIntel,60,,,,,,27,1.533,1,,,,,,9 x 3 =,largeFirst,largeProd,27,0,3,3,7,1,,,,,,,,,,,,,,,,,,,,,,,,,,,,,,,,,,,,,,,,,,,,,,,,,,,,,,,,,,,,,,,,,,,,,,,,,,,,,,,,,,,,,,,,,,,,,,,,,,,,,,,,,,
,,,,,,,,,784,001,ABC,2022-01-22_12h36.16.330,workingMemoryTest,2020.2.10,MacIntel,60,,,,,,30,1.433,1,,,,,,6 x 5 =,largeFirst,largeProd,30,0,4,4,13,1,,,,,,,,,,,,,,,,,,,,,,,,,,,,,,,,,,,,,,,,,,,,,,,,,,,,,,,,,,,,,,,,,,,,,,,,,,,,,,,,,,,,,,,,,,,,,,,,,,,,,,,,,,
,,,,,,,,,784,001,ABC,2022-01-22_12h36.16.330,workingMemoryTest,2020.2.10,MacIntel,60,,,,,,54,1.712,1,,,,,,6 x 9 =,smallFirst,largeProd,54,0,5,5,22,1,,,,,,,,,,,,,,,,,,,,,,,,,,,,,,,,,,,,,,,,,,,,,,,,,,,,,,,,,,,,,,,,,,,,,,,,,,,,,,,,,,,,,,,,,,,,,,,,,,,,,,,,,,
,,,,,,,,,784,001,ABC,2022-01-22_12h36.16.330,workingMemoryTest,2020.2.10,MacIntel,60,,,,,,8,1.117,1,,,,,,2 x 4 =,smallFirst,smallProd,8,0,6,6,17,1,,,,,,,,,,,,,,,,,,,,,,,,,,,,,,,,,,,,,,,,,,,,,,,,,,,,,,,,,,,,,,,,,,,,,,,,,,,,,,,,,,,,,,,,,,,,,,,,,,,,,,,,,,
,,,,,,,,,784,001,ABC,2022-01-22_12h36.16.330,workingMemoryTest,2020.2.10,MacIntel,60,,,,,,21,1.017,1,,,,,,3 x 7 =,smallFirst,smallProd,21,0,7,7,14,1,,,,,,,,,,,,,,,,,,,,,,,,,,,,,,,,,,,,,,,,,,,,,,,,,,,,,,,,,,,,,,,,,,,,,,,,,,,,,,,,,,,,,,,,,,,,,,,,,,,,,,,,,,
,,,,,,,,,784,001,ABC,2022-01-22_12h36.16.330,workingMemoryTest,2020.2.10,MacIntel,60,,,,,,56,1.466,1,,,,,,7 x 8 =,smallFirst,largeProd,56,0,8,8,23,1,,,,,,,,,,,,,,,,,,,,,,,,,,,,,,,,,,,,,,,,,,,,,,,,,,,,,,,,,,,,,,,,,,,,,,,,,,,,,,,,,,,,,,,,,,,,,,,,,,,,,,,,,,
,,,,,,,,,784,001,ABC,2022-01-22_12h36.16.330,workingMemoryTest,2020.2.10,MacIntel,60,,,,,,32,1.668,1,,,,,,8 x 4 =,largeFirst,largeProd,32,0,9,9,8,1,,,,,,,,,,,,,,,,,,,,,,,,,,,,,,,,,,,,,,,,,,,,,,,,,,,,,,,,,,,,,,,,,,,,,,,,,,,,,,,,,,,,,,,,,,,,,,,,,,,,,,,,,,
,,,,,,,,,784,001,ABC,2022-01-22_12h36.16.330,workingMemoryTest,2020.2.10,MacIntel,60,,,,,,12,0.85,1,,,,,,4 x 3 =,largeFirst,smallProd,12,0,10,10,1,1,,,,,,,,,,,,,,,,,,,,,,,,,,,,,,,,,,,,,,,,,,,,,,,,,,,,,,,,,,,,,,,,,,,,,,,,,,,,,,,,,,,,,,,,,,,,,,,,,,,,,,,,,,
,,,,,,,,,784,001,ABC,2022-01-22_12h36.16.330,workingMemoryTest,2020.2.10,MacIntel,60,,,,,,35,1.601,1,,,,,,7 x 5 =,largeFirst,largeProd,35,0,11,11,11,1,,,,,,,,,,,,,,,,,,,,,,,,,,,,,,,,,,,,,,,,,,,,,,,,,,,,,,,,,,,,,,,,,,,,,,,,,,,,,,,,,,,,,,,,,,,,,,,,,,,,,,,,,,
,,,,,,,,,784,001,ABC,2022-01-22_12h36.16.330,workingMemoryTest,2020.2.10,MacIntel,60,,,,,,49,2.034,1,,,,,,7 x 7 =,tie,largeProd,49,0,12,12,29,1,,,,,,,,,,,,,,,,,,,,,,,,,,,,,,,,,,,,,,,,,,,,,,,,,,,,,,,,,,,,,,,,,,,,,,,,,,,,,,,,,,,,,,,,,,,,,,,,,,,,,,,,,,
,,,,,,,,,784,001,ABC,2022-01-22_12h36.16.330,workingMemoryTest,2020.2.10,MacIntel,60,,,,,,10,1.066,1,,,,,,5 x 2 =,largeFirst,smallProd,10,0,13,13,2,1,,,,,,,,,,,,,,,,,,,,,,,,,,,,,,,,,,,,,,,,,,,,,,,,,,,,,,,,,,,,,,,,,,,,,,,,,,,,,,,,,,,,,,,,,,,,,,,,,,,,,,,,,,
,,,,,,,,,784,001,ABC,2022-01-22_12h36.16.330,workingMemoryTest,2020.2.10,MacIntel,60,,,,,,9,1.451,1,,,,,,3 x 3 =,tie,smallProd,9,0,14,14,28,1,,,,,,,,,,,,,,,,,,,,,,,,,,,,,,,,,,,,,,,,,,,,,,,,,,,,,,,,,,,,,,,,,,,,,,,,,,,,,,,,,,,,,,,,,,,,,,,,,,,,,,,,,,
,,,,,,,,,784,001,ABC,2022-01-22_12h36.16.330,workingMemoryTest,2020.2.10,MacIntel,60,,,,,,14,1.216,1,,,,,,7 x 2 =,largeFirst,smallProd,14,0,15,15,4,1,,,,,,,,,,,,,,,,,,,,,,,,,,,,,,,,,,,,,,,,,,,,,,,,,,,,,,,,,,,,,,,,,,,,,,,,,,,,,,,,,,,,,,,,,,,,,,,,,,,,,,,,,,
,,,,,,,,,784,001,ABC,2022-01-22_12h36.16.330,workingMemoryTest,2020.2.10,MacIntel,60,,,,,,63,1.484,1,,,,,,9 x 7 =,largeFirst,largeProd,63,0,16,16,12,1,,,,,,,,,,,,,,,,,,,,,,,,,,,,,,,,,,,,,,,,,,,,,,,,,,,,,,,,,,,,,,,,,,,,,,,,,,,,,,,,,,,,,,,,,,,,,,,,,,,,,,,,,,
,,,,,,,,,784,001,ABC,2022-01-22_12h36.16.330,workingMemoryTest,2020.2.10,MacIntel,60,,,,,,18,1.116,1,,,,,,2 x 9 =,smallFirst,smallProd,18,0,17,17,18,1,,,,,,,,,,,,,,,,,,,,,,,,,,,,,,,,,,,,,,,,,,,,,,,,,,,,,,,,,,,,,,,,,,,,,,,,,,,,,,,,,,,,,,,,,,,,,,,,,,,,,,,,,,
,,,,,,,,,784,001,ABC,2022-01-22_12h36.16.330,workingMemoryTest,2020.2.10,MacIntel,60,,,,,,24,1,1,,,,,,6 x 4 =,largeFirst,smallProd,24,0,18,18,6,1,,,,,,,,,,,,,,,,,,,,,,,,,,,,,,,,,,,,,,,,,,,,,,,,,,,,,,,,,,,,,,,,,,,,,,,,,,,,,,,,,,,,,,,,,,,,,,,,,,,,,,,,,,
,,,,,,,,,784,001,ABC,2022-01-22_12h36.16.330,workingMemoryTest,2020.2.10,MacIntel,60,,,,,,36,1.733,1,,,,,,4 x 9 =,smallFirst,largeProd,36,0,19,19,26,1,,,,,,,,,,,,,,,,,,,,,,,,,,,,,,,,,,,,,,,,,,,,,,,,,,,,,,,,,,,,,,,,,,,,,,,,,,,,,,,,,,,,,,,,,,,,,,,,,,,,,,,,,,
,,,,,,,,,784,001,ABC,2022-01-22_12h36.16.330,workingMemoryTest,2020.2.10,MacIntel,60,,,,,,16,1.218,1,,,,,,8 x 2 =,largeFirst,smallProd,16,0,20,20,5,1,,,,,,,,,,,,,,,,,,,,,,,,,,,,,,,,,,,,,,,,,,,,,,,,,,,,,,,,,,,,,,,,,,,,,,,,,,,,,,,,,,,,,,,,,,,,,,,,,,,,,,,,,,
,,,,,,,,,784,001,ABC,2022-01-22_12h36.16.330,workingMemoryTest,2020.2.10,MacIntel,60,,,,,,42,2.332,1,,,,,,7 x 6 =,largeFirst,largeProd,42,0,21,21,10,1,,,,,,,,,,,,,,,,,,,,,,,,,,,,,,,,,,,,,,,,,,,,,,,,,,,,,,,,,,,,,,,,,,,,,,,,,,,,,,,,,,,,,,,,,,,,,,,,,,,,,,,,,,
,,,,,,,,,784,001,ABC,2022-01-22_12h36.16.330,workingMemoryTest,2020.2.10,MacIntel,60,,,,,,12,1.2,1,,,,,,2 x 6 =,smallFirst,smallProd,12,0,22,22,20,1,,,,,,,,,,,,,,,,,,,,,,,,,,,,,,,,,,,,,,,,,,,,,,,,,,,,,,,,,,,,,,,,,,,,,,,,,,,,,,,,,,,,,,,,,,,,,,,,,,,,,,,,,,
,,,,,,,,,784,001,ABC,2022-01-22_12h36.16.330,workingMemoryTest,2020.2.10,MacIntel,60,,,,,,24,2.066,1,,,,,,3 x 8 =,smallFirst,smallProd,24,0,23,23,15,1,,,,,,,,,,,,,,,,,,,,,,,,,,,,,,,,,,,,,,,,,,,,,,,,,,,,,,,,,,,,,,,,,,,,,,,,,,,,,,,,,,,,,,,,,,,,,,,,,,,,,,,,,,
,,,,,,,,,784,001,ABC,2022-01-22_12h36.16.330,workingMemoryTest,2020.2.10,MacIntel,60,,,,,,20,1.099,1,,,,,,4 x 5 =,smallFirst,smallProd,20,0,24,24,16,1,,,,,,,,,,,,,,,,,,,,,,,,,,,,,,,,,,,,,,,,,,,,,,,,,,,,,,,,,,,,,,,,,,,,,,,,,,,,,,,,,,,,,,,,,,,,,,,,,,,,,,,,,,
,,,,,,,,,784,001,ABC,2022-01-22_12h36.16.330,workingMemoryTest,2020.2.10,MacIntel,60,,,,,,45,1.283,1,,,,,,9 x 5 =,largeFirst,largeProd,45,0,25,25,9,1,,,,,,,,,,,,,,,,,,,,,,,,,,,,,,,,,,,,,,,,,,,,,,,,,,,,,,,,,,,,,,,,,,,,,,,,,,,,,,,,,,,,,,,,,,,,,,,,,,,,,,,,,,
,,,,,,,,,784,001,ABC,2022-01-22_12h36.16.330,workingMemoryTest,2020.2.10,MacIntel,60,,,,,,28,1.35,1,,,,,,4 x 7 =,smallFirst,largeProd,28,0,26,26,25,1,,,,,,,,,,,,,,,,,,,,,,,,,,,,,,,,,,,,,,,,,,,,,,,,,,,,,,,,,,,,,,,,,,,,,,,,,,,,,,,,,,,,,,,,,,,,,,,,,,,,,,,,,,
,,,,,,,,,784,001,ABC,2022-01-22_12h36.16.330,workingMemoryTest,2020.2.10,MacIntel,60,,,,,,15,0.949,1,,,,,,3 x 5 =,smallFirst,smallProd,15,0,27,27,19,1,,,,,,,,,,,,,,,,,,,,,,,,,,,,,,,,,,,,,,,,,,,,,,,,,,,,,,,,,,,,,,,,,,,,,,,,,,,,,,,,,,,,,,,,,,,,,,,,,,,,,,,,,,
,,,,,,,,,784,001,ABC,2022-01-22_12h36.16.330,workingMemoryTest,2020.2.10,MacIntel,60,,,,,,6,1.299,1,,,,,,3 x 2 =,largeFirst,smallProd,6,0,28,28,0,1,,,,,,,,,,,,,,,,,,,,,,,,,,,,,,,,,,,,,,,,,,,,,,,,,,,,,,,,,,,,,,,,,,,,,,,,,,,,,,,,,,,,,,,,,,,,,,,,,,,,,,,,,,
,,,,,,,,,784,001,ABC,2022-01-22_12h36.16.330,workingMemoryTest,2020.2.10,MacIntel,60,,,,,,40,1.25,1,,,,,,5 x 8 =,smallFirst,largeProd,40,0,29,29,27,1,,,,,,,,,,,,,,,,,,,,,,,,,,,,,,,,,,,,,,,,,,,,,,,,,,,,,,,,,,,,,,,,,,,,,,,,,,,,,,,,,,,,,,,,,,,,,,,,,,,,,,,,,,
,,,,,,,,,784,001,ABC,2022-01-22_12h36.16.330,workingMemoryTest,2020.2.10,MacIntel,60,,,,,,,,,,,,,,,,,,,,,,,0,1,1,0,1,multiplOne.xlsx,,,,,,,,,,,,,,,,,,,,,,,,,,,,,,,,,,,,,,,,,,,,,,,,,,,,,,,,,,,,,,,,,,,,,,,,,,,,,,,,,,,,,,,,,,,,,,,,,,,,
,,,,,,,,,784,001,ABC,2022-01-22_12h36.16.330,workingMemoryTest,2020.2.10,MacIntel,60,,,,,,,,,,,,,,,,,,,,,,,,,,,,,0,0,0,0,1,,,,,,,,,,,,,,,,,,,,,,,,,,,,,,,,,,,,,,,,,,,,,,,,,,,,,,,,,,,,,,,,,,,,,,,,,,,,,,,,,,,,,,,,,,,,,,,
,,,,,,,,,784,001,ABC,2022-01-22_12h36.16.330,workingMemoryTest,2020.2.10,MacIntel,60,,,,,,,,,,,,,,,,,,,,,,,,,,,,,,,,,,0,0,0,0,1,1,0,0,,,,,,,,,,,,,,,,,,,,,,,,,,,,,,,,,,,,,,,,,,,,,,,,,,,,,,,,,,,,,,,,,,,,,,,,,,,,,,,,,,,,,,,
,,,,,,,,,784,001,ABC,2022-01-22_12h36.16.330,workingMemoryTest,2020.2.10,MacIntel,60,,,,,,,,,,,,,,,,,,,,,,,,,,,,,,,,,,,,,,,,,,,2.65,0,0,0,0,0,1,practice,123,Audio/123.mp3,,,,,,,,,,,,,,,,,,,,,,,,,,,,,,,,,,,,,,,,,,,,,,,,,,,,,,,,,,,,,,,,,,,,,,,,,,,,
,,,,,,,,,784,001,ABC,2022-01-22_12h36.16.330,workingMemoryTest,2020.2.10,MacIntel,60,,,,,,,,,,,,,,,,,,,,,,,,,,,,,,,,,,,,,,,,,,321,1.85,1,0,1,1,1,1,practice,321,Audio/321.mp3,,,,,,,,,,,,,,,,,,,,,,,,,,,,,,,,,,,,,,,,,,,,,,,,,,,,,,,,,,,,,,,,,,,,,,,,,,,,
,,,,,,,,,784,001,ABC,2022-01-22_12h36.16.330,workingMemoryTest,2020.2.10,MacIntel,60,,,,,,,,,,,,,,,,,,,,,,,,,,,,,,,,,,,,,,,,,,911,1.566,1,0,2,2,2,1,practice,911,Audio/911.mp3,,,,,,,,,,,,,,,,,,,,,,,,,,,,,,,,,,,,,,,,,,,,,,,,,,,,,,,,,,,,,,,,,,,,,,,,,,,,
,,,,,,,,,784,001,ABC,2022-01-22_12h36.16.330,workingMemoryTest,2020.2.10,MacIntel,60,,,,,,,,,,,,,,,,,,,,,,,,,,,,,,,,,,,,,,,,,,,,,,,,,,,46,Audio/46.mp3,46,1.3,1,0,0,0,0,1,2,,,,,,,,,,,,,,,,,,,,,,,,,,,,,,,,,,,,,,,,,,,,,,,,,,,,,,,,,,,,,,,,,,,
,,,,,,,,,784,001,ABC,2022-01-22_12h36.16.330,workingMemoryTest,2020.2.10,MacIntel,60,,,,,,,,,,,,,,,,,,,,,,,,,,,,,,,,,,,,,,,,,,,,,,,,,,,,,,,,,,,,,,0,0,0,0,1,twoAudio.xlsx,,,,,,,,,,,,,,,,,,,,,,,,,,,,,,,,,,,,,,,,,,,,,,,,,,,,,,,,,,,,,
,,,,,,,,,784,001,ABC,2022-01-22_12h36.16.330,workingMemoryTest,2020.2.10,MacIntel,60,,,,,,,,,,,,,,,,,,,,,,,,,,,,,,,,,,,,,,,,,,,,,,,,,,,157,Audio/157.mp3,157,1.016,1,0,0,0,0,1,3,,,,,,,,,,,,,,,,,,,,,,,,,,,,,,,,,,,,,,,,,,,,,,,,,,,,,,,,,,,,,,,,,,,
,,,,,,,,,784,001,ABC,2022-01-22_12h36.16.330,workingMemoryTest,2020.2.10,MacIntel,60,,,,,,,,,,,,,,,,,,,,,,,,,,,,,,,,,,,,,,,,,,,,,,,,,,,,,,,,,,,,,,0,1,1,1,1,threeAudio.xlsx,,,,,,,,,,,,,,,,,,,,,,,,,,,,,,,,,,,,,,,,,,,,,,,,,,,,,,,,,,,,,
,,,,,,,,,784,001,ABC,2022-01-22_12h36.16.330,workingMemoryTest,2020.2.10,MacIntel,60,,,,,,,,,,,,,,,,,,,,,,,,,,,,,,,,,,,,,,,,,,,,,,,,,,,6352,Audio/6352.mp3,6352,1.834,1,0,0,0,0,1,4,,,,,,,,,,,,,,,,,,,,,,,,,,,,,,,,,,,,,,,,,,,,,,,,,,,,,,,,,,,,,,,,,,,
,,,,,,,,,784,001,ABC,2022-01-22_12h36.16.330,workingMemoryTest,2020.2.10,MacIntel,60,,,,,,,,,,,,,,,,,,,,,,,,,,,,,,,,,,,,,,,,,,,,,,,,,,,,,,,,,,,,,,0,2,2,2,1,fourAudio.xlsx,,,,,,,,,,,,,,,,,,,,,,,,,,,,,,,,,,,,,,,,,,,,,,,,,,,,,,,,,,,,,
,,,,,,,,,784,001,ABC,2022-01-22_12h36.16.330,workingMemoryTest,2020.2.10,MacIntel,60,,,,,,,,,,,,,,,,,,,,,,,,,,,,,,,,,,,,,,,,,,,,,,,,,,,59281,Audio/59281.mp3,59281,1.267,1,0,0,0,0,1,5,,,,,,,,,,,,,,,,,,,,,,,,,,,,,,,,,,,,,,,,,,,,,,,,,,,,,,,,,,,,,,,,,,,
,,,,,,,,,784,001,ABC,2022-01-22_12h36.16.330,workingMemoryTest,2020.2.10,MacIntel,60,,,,,,,,,,,,,,,,,,,,,,,,,,,,,,,,,,,,,,,,,,,,,,,,,,,,,,,,,,,,,,0,3,3,3,1,fiveAudio.xlsx,,,,,,,,,,,,,,,,,,,,,,,,,,,,,,,,,,,,,,,,,,,,,,,,,,,,,,,,,,,,,
,,,,,,,,,784,001,ABC,2022-01-22_12h36.16.330,workingMemoryTest,2020.2.10,MacIntel,60,,,,,,,,,,,,,,,,,,,,,,,,,,,,,,,,,,,,,,,,,,,,,,,,,,,396172,Audio/396172.mp3,396172,1.416,1,0,0,0,0,1,6,,,,,,,,,,,,,,,,,,,,,,,,,,,,,,,,,,,,,,,,,,,,,,,,,,,,,,,,,,,,,,,,,,,
,,,,,,,,,784,001,ABC,2022-01-22_12h36.16.330,workingMemoryTest,2020.2.10,MacIntel,60,,,,,,,,,,,,,,,,,,,,,,,,,,,,,,,,,,,,,,,,,,,,,,,,,,,,,,,,,,,,,,0,4,4,4,1,sixAudio.xlsx,,,,,,,,,,,,,,,,,,,,,,,,,,,,,,,,,,,,,,,,,,,,,,,,,,,,,,,,,,,,,
,,,,,,,,,784,001,ABC,2022-01-22_12h36.16.330,workingMemoryTest,2020.2.10,MacIntel,60,,,,,,,,,,,,,,,,,,,,,,,,,,,,,,,,,,,,,,,,,,,,,,,,,,,8241973,Audio/8241973.mp3,8241973,4.066,1,0,0,0,0,1,7,,,,,,,,,,,,,,,,,,,,,,,,,,,,,,,,,,,,,,,,,,,,,,,,,,,,,,,,,,,,,,,,,,,
,,,,,,,,,784,001,ABC,2022-01-22_12h36.16.330,workingMemoryTest,2020.2.10,MacIntel,60,,,,,,,,,,,,,,,,,,,,,,,,,,,,,,,,,,,,,,,,,,,,,,,,,,,,,,,,,,,,,,0,5,5,5,1,sevenAudio.xlsx,,,,,,,,,,,,,,,,,,,,,,,,,,,,,,,,,,,,,,,,,,,,,,,,,,,,,,,,,,,,,
,,,,,,,,,784,001,ABC,2022-01-22_12h36.16.330,workingMemoryTest,2020.2.10,MacIntel,60,,,,,,,,,,,,,,,,,,,,,,,,,,,,,,,,,,,,,,,,,,,,,,,,,,,53827164,Audio/53827164.mp3,53827164,2.184,1,0,0,0,0,1,8,,,,,,,,,,,,,,,,,,,,,,,,,,,,,,,,,,,,,,,,,,,,,,,,,,,,,,,,,,,,,,,,,,,
,,,,,,,,,784,001,ABC,2022-01-22_12h36.16.330,workingMemoryTest,2020.2.10,MacIntel,60,,,,,,,,,,,,,,,,,,,,,,,,,,,,,,,,,,,,,,,,,,,,,,,,,,,,,,,,,,,,,,0,6,6,6,1,eightAudio.xlsx,,,,,,,,,,,,,,,,,,,,,,,,,,,,,,,,,,,,,,,,,,,,,,,,,,,,,,,,,,,,,
,,,,,,,,,784,001,ABC,2022-01-22_12h36.16.330,workingMemoryTest,2020.2.10,MacIntel,60,,,,,,,,,,,,,,,,,,,,,,,,,,,,,,,,,,,,,,,,,,,,,,,,,,,682594316,Audio/682594316.mp3,682594316,3.1,1,0,0,0,0,1,9,,,,,,,,,,,,,,,,,,,,,,,,,,,,,,,,,,,,,,,,,,,,,,,,,,,,,,,,,,,,,,,,,,,
,,,,,,,,,784,001,ABC,2022-01-22_12h36.16.330,workingMemoryTest,2020.2.10,MacIntel,60,,,,,,,,,,,,,,,,,,,,,,,,,,,,,,,,,,,,,,,,,,,,,,,,,,,,,,,,,,,,,,0,7,7,7,1,nineAudio.xlsx,,,,,,,,,,,,,,,,,,,,,,,,,,,,,,,,,,,,,,,,,,,,,,,,,,,,,,,,,,,,,
,,,,,,,,,784,001,ABC,2022-01-22_12h36.16.330,workingMemoryTest,2020.2.10,MacIntel,60,,,,,,,,,,,,,,,,,,,,,,,,,,,,,,,,,,,,,,,,,,,,,,,,,,,,,,,,,,,,,,,,,,,,97,2.983,1,0,0,0,0,1,2,97,Audio/97.mp3,,,,,,,,,,,,,,,,,,,,,,,,,,,,,,,,,,,,,,,,,,,,,,,,,,
,,,,,,,,,784,001,ABC,2022-01-22_12h36.16.330,workingMemoryTest,2020.2.10,MacIntel,60,,,,,,,,,,,,,,,,,,,,,,,,,,,,,,,,,,,,,,,,,,,,,,,,,,,,,,,,,,,,,,,,,,,,,,,,,,,,,,,0,0,0,0,1,twoWAIS.xlsx,,,,,,,,,,,,,,,,,,,,,,,,,,,,,,,,,,,,,,,,,,,,
,,,,,,,,,784,001,ABC,2022-01-22_12h36.16.330,workingMemoryTest,2020.2.10,MacIntel,60,,,,,,,,,,,,,,,,,,,,,,,,,,,,,,,,,,,,,,,,,,,,,,,,,,,,,,,,,,,,,,,,,,,,582,0.733,1,0,0,0,0,1,3,582,Audio/582.mp3,,,,,,,,,,,,,,,,,,,,,,,,,,,,,,,,,,,,,,,,,,,,,,,,,,
,,,,,,,,,784,001,ABC,2022-01-22_12h36.16.330,workingMemoryTest,2020.2.10,MacIntel,60,,,,,,,,,,,,,,,,,,,,,,,,,,,,,,,,,,,,,,,,,,,,,,,,,,,,,,,,,,,,,,,,,,,,,,,,,,,,,,,0,1,1,1,1,threeWAIS.xlsx,,,,,,,,,,,,,,,,,,,,,,,,,,,,,,,,,,,,,,,,,,,,
,,,,,,,,,784,001,ABC,2022-01-22_12h36.16.330,workingMemoryTest,2020.2.10,MacIntel,60,,,,,,,,,,,,,,,,,,,,,,,,,,,,,,,,,,,,,,,,,,,,,,,,,,,,,,,,,,,,,,,,,,,,7286,0.833,1,0,0,0,0,1,4,7286,Audio/7286.mp3,,,,,,,,,,,,,,,,,,,,,,,,,,,,,,,,,,,,,,,,,,,,,,,,,,
,,,,,,,,,784,001,ABC,2022-01-22_12h36.16.330,workingMemoryTest,2020.2.10,MacIntel,60,,,,,,,,,,,,,,,,,,,,,,,,,,,,,,,,,,,,,,,,,,,,,,,,,,,,,,,,,,,,,,,,,,,,,,,,,,,,,,,0,2,2,2,1,fourWAIS.xlsx,,,,,,,,,,,,,,,,,,,,,,,,,,,,,,,,,,,,,,,,,,,,
,,,,,,,,,784,001,ABC,2022-01-22_12h36.16.330,workingMemoryTest,2020.2.10,MacIntel,60,,,,,,,,,,,,,,,,,,,,,,,,,,,,,,,,,,,,,,,,,,,,,,,,,,,,,,,,,,,,,,,,,,,,42731,1.1,1,0,0,0,0,1,5,42731,Audio/42731.mp3,,,,,,,,,,,,,,,,,,,,,,,,,,,,,,,,,,,,,,,,,,,,,,,,,,
,,,,,,,,,784,001,ABC,2022-01-22_12h36.16.330,workingMemoryTest,2020.2.10,MacIntel,60,,,,,,,,,,,,,,,,,,,,,,,,,,,,,,,,,,,,,,,,,,,,,,,,,,,,,,,,,,,,,,,,,,,,,,,,,,,,,,,0,3,3,3,1,fiveWAIS.xlsx,,,,,,,,,,,,,,,,,,,,,,,,,,,,,,,,,,,,,,,,,,,,
,,,,,,,,,784,001,ABC,2022-01-22_12h36.16.330,workingMemoryTest,2020.2.10,MacIntel,60,,,,,,,,,,,,,,,,,,,,,,,,,,,,,,,,,,,,,,,,,,,,,,,,,,,,,,,,,,,,,,,,,,,,392487,2.4,1,0,0,0,0,1,6,392487,Audio/392487.mp3,,,,,,,,,,,,,,,,,,,,,,,,,,,,,,,,,,,,,,,,,,,,,,,,,,
,,,,,,,,,784,001,ABC,2022-01-22_12h36.16.330,workingMemoryTest,2020.2.10,MacIntel,60,,,,,,,,,,,,,,,,,,,,,,,,,,,,,,,,,,,,,,,,,,,,,,,,,,,,,,,,,,,,,,,,,,,,,,,,,,,,,,,0,4,4,4,1,sixWAIS.xlsx,,,,,,,,,,,,,,,,,,,,,,,,,,,,,,,,,,,,,,,,,,,,
,,,,,,,,,784,001,ABC,2022-01-22_12h36.16.330,workingMemoryTest,2020.2.10,MacIntel,60,,,,,,,,,,,,,,,,,,,,,,,,,,,,,,,,,,,,,,,,,,,,,,,,,,,,,,,,,,,,,,,,,,,,6917428,3.568,1,0,0,0,0,1,7,6917428,Audio/6917428.mp3,,,,,,,,,,,,,,,,,,,,,,,,,,,,,,,,,,,,,,,,,,,,,,,,,,
,,,,,,,,,784,001,ABC,2022-01-22_12h36.16.330,workingMemoryTest,2020.2.10,MacIntel,60,,,,,,,,,,,,,,,,,,,,,,,,,,,,,,,,,,,,,,,,,,,,,,,,,,,,,,,,,,,,,,,,,,,,,,,,,,,,,,,0,5,5,5,1,sevenWAIS.xlsx,,,,,,,,,,,,,,,,,,,,,,,,,,,,,,,,,,,,,,,,,,,,
,,,,,,,,,784,001,ABC,2022-01-22_12h36.16.330,workingMemoryTest,2020.2.10,MacIntel,60,,,,,,,,,,,,,,,,,,,,,,,,,,,,,,,,,,,,,,,,,,,,,,,,,,,,,,,,,,,,,,,,,,,,38217614,10.784,0,0,0,0,0,1,8,38296174,Audio/38296174.mp3,,,,,,,,,,,,,,,,,,,,,,,,,,,,,,,,,,,,,,,,,,,,,,,,,,
,,,,,,,,,784,001,ABC,2022-01-22_12h36.16.330,workingMemoryTest,2020.2.10,MacIntel,60,,,,,,,,,,,,,,,,,,,,,,,,,,,,,,,,,,,,,,,,,,,,,,,,,,,,,,,,,,,,,,,,,,,,58132647,5.416,1,0,1,1,1,1,8,58132647,Audio/58132647.mp3,,,,,,,,,,,,,,,,,,,,,,,,,,,,,,,,,,,,,,,,,,,,,,,,,,
,,,,,,,,,784,001,ABC,2022-01-22_12h36.16.330,workingMemoryTest,2020.2.10,MacIntel,60,,,,,,,,,,,,,,,,,,,,,,,,,,,,,,,,,,,,,,,,,,,,,,,,,,,,,,,,,,,,,,,,,,,,,,,,,,,,,,,0,6,6,6,1,eightWAIS.xlsx,,,,,,,,,,,,,,,,,,,,,,,,,,,,,,,,,,,,,,,,,,,,
,,,,,,,,,784,001,ABC,2022-01-22_12h36.16.330,workingMemoryTest,2020.2.10,MacIntel,60,,,,,,,,,,,,,,,,,,,,,,,,,,,,,,,,,,,,,,,,,,,,,,,,,,,,,,,,,,,,,,,,,,,,276863914,9.384,0,0,0,0,0,1,9,275863194,Audio/275863194.mp3,,,,,,,,,,,,,,,,,,,,,,,,,,,,,,,,,,,,,,,,,,,,,,,,,,
,,,,,,,,,784,001,ABC,2022-01-22_12h36.16.330,workingMemoryTest,2020.2.10,MacIntel,60,,,,,,,,,,,,,,,,,,,,,,,,,,,,,,,,,,,,,,,,,,,,,,,,,,,,,,,,,,,,,,,,,,,,713924568,8.366,0,0,1,1,1,1,9,713942568,Audio/713942568.mp3,,,,,,,,,,,,,,,,,,,,,,,,,,,,,,,,,,,,,,,,,,,,,,,,,,
,,,,,,,,,784,001,ABC,2022-01-22_12h36.16.330,workingMemoryTest,2020.2.10,MacIntel,60,,,,,,,,,,,,,,,,,,,,,,,,,,,,,,,,,,,,,,,,,,,,,,,,,,,,,,,,,,,,,,,,,,,,,,,,,,,,,,,,,,,,,0,0,0,0,1,,,,,,,,,,,,,,,,,,,,,,,,,,,,,,,,,,,,,,,
,,,,,,,,,784,001,ABC,2022-01-22_12h36.16.330,workingMemoryTest,2020.2.10,MacIntel,60,,,,,,,,,,,,,,,,,,,,,,,,,,,,,,,,,,0,1,1,1,1,0,1,0,,,,,,,,,,,,,,,,,,,,,,,,,,,,,,,,,,,,,,,,,,,,,,,,,,,,,,,,,,,,,,,,,,,,,,,,,,,,,,,,,,,,,,,
,,,,,,,,,784,001,ABC,2022-01-22_12h36.16.330,workingMemoryTest,2020.2.10,MacIntel,60,,,,,,,,,,,,,,,,,,,,,,,,,,,,,,,,,,,,,,,,,,,,,,,,,,,,,,,,,,,,,,,,,,,,,,,,,,,,,,,,,,,,,,,,,,TRUE,0.062195122,-0.335365854,1,0,0,0,0,0,2,1,,3,3,,,,,,,,,,,,,,,,,,,,,,,,,
,,,,,,,,,784,001,ABC,2022-01-22_12h36.16.330,workingMemoryTest,2020.2.10,MacIntel,60,,,,,,,,,,,,,,,,,,,,,,,,,,,,,,,,,,,,,,,,,,,,,,,,,,,,,,,,,,,,,,,,,,,,,,,,,,,,,,,,,,,,,,,,,,TRUE,0.048780488,-0.331707317,1,0,0,0,1,1,1,1,,3,3,,,,,,,,,,,,,,,,,,,,,,,,,
,,,,,,,,,784,001,ABC,2022-01-22_12h36.16.330,workingMemoryTest,2020.2.10,MacIntel,60,,,,,,,,,,,,,,,,,,,,,,,,,,,,,,,,,,,,,,,,,,,,,,,,,,,,,,,,,,,,,,,,,,,,,,,,,,,,,,,,,,,,,,,,,,TRUE,0.058536585,-0.329268293,1,0,0,0,2,2,0,1,,3,3,,,,,,,,,,,,,,,,,,,,,,,,,
,,,,,,,,,784,001,ABC,2022-01-22_12h36.16.330,workingMemoryTest,2020.2.10,MacIntel,60,,,,,,,,,,,,,,,,,,,,,,,,,,,,,,,,,,,,,,,,,,,,,,,,,,,,,,,,,,,,,,,,,,,,,,,,,,,,,,,,,,,,,,,,,,,,,,,,,,,,,,2,2,TRUE,-0.009756098,-0.353658537,1,0,0,0,0,0,0,1,2,2,,,,,,,,,,,,
,,,,,,,,,784,001,ABC,2022-01-22_12h36.16.330,workingMemoryTest,2020.2.10,MacIntel,60,,,,,,,,,,,,,,,,,,,,,,,,,,,,,,,,,,,,,,,,,,,,,,,,,,,,,,,,,,,,,,,,,,,,,,,,,,,,,,,,,,,,,,,,,,,,,,,,,,,,,,2,2,TRUE,0.017073171,-0.323170732,1,0,0,0,1,1,1,1,2,2,,,,,,,,,,,,
,,,,,,,,,784,001,ABC,2022-01-22_12h36.16.330,workingMemoryTest,2020.2.10,MacIntel,60,,,,,,,,,,,,,,,,,,,,,,,,,,,,,,,,,,,,,,,,,,,,,,,,,,,,,,,,,,,,,,,,,,,,,,,,,,,,,,,,,,,,,,,,,,,,,,,,,,,,,,2,2,TRUE,0,-0.331707317,1,0,0,0,2,2,2,1,2,2,,,,,,,,,,,,
,,,,,,,,,784,001,ABC,2022-01-22_12h36.16.330,workingMemoryTest,2020.2.10,MacIntel,60,,,,,,,,,,,,,,,,,,,,,,,,,,,,,,,,,,,,,,,,,,,,,,,,,,,,,,,,,,,,,,,,,,,,,,,,,,,,,,,,,,,,,,,,,,,,,,,,,,,,,,,,,,,,,,,,,,,,,0,0,0,0,1,blockTwo.xlsx,Ready for the next set? ,,,,,
,,,,,,,,,784,001,ABC,2022-01-22_12h36.16.330,workingMemoryTest,2020.2.10,MacIntel,60,,,,,,,,,,,,,,,,,,,,,,,,,,,,,,,,,,,,,,,,,,,,,,,,,,,,,,,,,,,,,,,,,,,,,,,,,,,,,,,,,,,,,,,,,,,,,,,,,,,,,,3,3,TRUE,-0.013414634,-0.320731707,1,0,0,0,0,0,0,1,3,2,,,,,,,,,,,,
,,,,,,,,,784,001,ABC,2022-01-22_12h36.16.330,workingMemoryTest,2020.2.10,MacIntel,60,,,,,,,,,,,,,,,,,,,,,,,,,,,,,,,,,,,,,,,,,,,,,,,,,,,,,,,,,,,,,,,,,,,,,,,,,,,,,,,,,,,,,,,,,,,,,,,,,,,,,,3,3,TRUE,0.034146341,-0.331707317,1,0,0,0,1,1,1,1,3,2,,,,,,,,,,,,
,,,,,,,,,784,001,ABC,2022-01-22_12h36.16.330,workingMemoryTest,2020.2.10,MacIntel,60,,,,,,,,,,,,,,,,,,,,,,,,,,,,,,,,,,,,,,,,,,,,,,,,,,,,,,,,,,,,,,,,,,,,,,,,,,,,,,,,,,,,,,,,,,,,,,,,,,,,,,3,3,TRUE,0.012195122,-0.324390244,1,0,0,0,2,2,2,1,3,2,,,,,,,,,,,,
,,,,,,,,,784,001,ABC,2022-01-22_12h36.16.330,workingMemoryTest,2020.2.10,MacIntel,60,,,,,,,,,,,,,,,,,,,,,,,,,,,,,,,,,,,,,,,,,,,,,,,,,,,,,,,,,,,,,,,,,,,,,,,,,,,,,,,,,,,,,,,,,,,,,,,,,,,,,,,,,,,,,,,,,,,,,0,1,1,1,1,blockThree.xlsx,Ready for the next set? ,,,,,
,,,,,,,,,784,001,ABC,2022-01-22_12h36.16.330,workingMemoryTest,2020.2.10,MacIntel,60,,,,,,,,,,,,,,,,,,,,,,,,,,,,,,,,,,,,,,,,,,,,,,,,,,,,,,,,,,,,,,,,,,,,,,,,,,,,,,,,,,,,,,,,,,,,,,,,,,,,,,3,3,TRUE,0.067073171,-0.359756098,1,0,0,0,0,0,0,1,4,2,,,,,,,,,,,,
,,,,,,,,,784,001,ABC,2022-01-22_12h36.16.330,workingMemoryTest,2020.2.10,MacIntel,60,,,,,,,,,,,,,,,,,,,,,,,,,,,,,,,,,,,,,,,,,,,,,,,,,,,,,,,,,,,,,,,,,,,,,,,,,,,,,,,,,,,,,,,,,,,,,,,,,,,,,,3,3,TRUE,0.014634146,-0.326829268,1,0,0,0,1,1,1,1,4,2,,,,,,,,,,,,
,,,,,,,,,784,001,ABC,2022-01-22_12h36.16.330,workingMemoryTest,2020.2.10,MacIntel,60,,,,,,,,,,,,,,,,,,,,,,,,,,,,,,,,,,,,,,,,,,,,,,,,,,,,,,,,,,,,,,,,,,,,,,,,,,,,,,,,,,,,,,,,,,,,,,,,,,,,,,3,3,TRUE,-0.008536585,-0.357317073,1,0,0,0,2,2,2,1,4,2,,,,,,,,,,,,
,,,,,,,,,784,001,ABC,2022-01-22_12h36.16.330,workingMemoryTest,2020.2.10,MacIntel,60,,,,,,,,,,,,,,,,,,,,,,,,,,,,,,,,,,,,,,,,,,,,,,,,,,,,,,,,,,,,,,,,,,,,,,,,,,,,,,,,,,,,,,,,,,,,,,,,,,,,,,,,,,,,,,,,,,,,,0,2,2,2,1,blockFour.xlsx,Ready for the next set? ,,,,,
,,,,,,,,,784,001,ABC,2022-01-22_12h36.16.330,workingMemoryTest,2020.2.10,MacIntel,60,,,,,,,,,,,,,,,,,,,,,,,,,,,,,,,,,,,,,,,,,,,,,,,,,,,,,,,,,,,,,,,,,,,,,,,,,,,,,,,,,,,,,,,,,,,,,,,,,,,,,,4,4,TRUE,0.052439024,-0.351219512,1,0,0,0,0,0,0,1,5,,,,,,,,,,,,,
,,,,,,,,,784,001,ABC,2022-01-22_12h36.16.330,workingMemoryTest,2020.2.10,MacIntel,60,,,,,,,,,,,,,,,,,,,,,,,,,,,,,,,,,,,,,,,,,,,,,,,,,,,,,,,,,,,,,,,,,,,,,,,,,,,,,,,,,,,,,,,,,,,,,,,,,,,,,,4,4,TRUE,0.05,-0.336585366,1,0,0,0,1,1,1,1,5,,,,,,,,,,,,,
,,,,,,,,,784,001,ABC,2022-01-22_12h36.16.330,workingMemoryTest,2020.2.10,MacIntel,60,,,,,,,,,,,,,,,,,,,,,,,,,,,,,,,,,,,,,,,,,,,,,,,,,,,,,,,,,,,,,,,,,,,,,,,,,,,,,,,,,,,,,,,,,,,,,,,,,,,,,,4,4,TRUE,-0.03902439,-0.342682927,1,0,0,0,2,2,2,1,5,,,,,,,,,,,,,
,,,,,,,,,784,001,ABC,2022-01-22_12h36.16.330,workingMemoryTest,2020.2.10,MacIntel,60,,,,,,,,,,,,,,,,,,,,,,,,,,,,,,,,,,,,,,,,,,,,,,,,,,,,,,,,,,,,,,,,,,,,,,,,,,,,,,,,,,,,,,,,,,,,,,,,,,,,,,,,,,,,,,,,,,,,,0,3,3,3,1,blockFive.xlsx,Ready for the next set? ,,,,,
,,,,,,,,,784,001,ABC,2022-01-22_12h36.16.330,workingMemoryTest,2020.2.10,MacIntel,60,,,,,,,,,,,,,,,,,,,,,,,,,,,,,,,,,,,,,,,,,,,,,,,,,,,,,,,,,,,,,,,,,,,,,,,,,,,,,,,,,,,,,,,,,,,,,,,,,,,,,,4,4,TRUE,0.046341463,-0.35,1,0,0,0,0,0,0,1,6,,,,,,,,,,,,,
,,,,,,,,,784,001,ABC,2022-01-22_12h36.16.330,workingMemoryTest,2020.2.10,MacIntel,60,,,,,,,,,,,,,,,,,,,,,,,,,,,,,,,,,,,,,,,,,,,,,,,,,,,,,,,,,,,,,,,,,,,,,,,,,,,,,,,,,,,,,,,,,,,,,,,,,,,,,,4,4,TRUE,0.07195122,-0.334146341,1,0,0,0,1,1,1,1,6,,,,,,,,,,,,,
,,,,,,,,,784,001,ABC,2022-01-22_12h36.16.330,workingMemoryTest,2020.2.10,MacIntel,60,,,,,,,,,,,,,,,,,,,,,,,,,,,,,,,,,,,,,,,,,,,,,,,,,,,,,,,,,,,,,,,,,,,,,,,,,,,,,,,,,,,,,,,,,,,,,,,,,,,,,,4,4,TRUE,0.017073171,-0.32804878,1,0,0,0,2,2,2,1,6,,,,,,,,,,,,,
,,,,,,,,,784,001,ABC,2022-01-22_12h36.16.330,workingMemoryTest,2020.2.10,MacIntel,60,,,,,,,,,,,,,,,,,,,,,,,,,,,,,,,,,,,,,,,,,,,,,,,,,,,,,,,,,,,,,,,,,,,,,,,,,,,,,,,,,,,,,,,,,,,,,,,,,,,,,,,,,,,,,,,,,,,,,0,4,4,4,1,blockSix.xlsx,Ready for the next set? ,,,,,
,,,,,,,,,784,001,ABC,2022-01-22_12h36.16.330,workingMemoryTest,2020.2.10,MacIntel,60,,,,,,,,,,,,,,,,,,,,,,,,,,,,,,,,,,,,,,,,,,,,,,,,,,,,,,,,,,,,,,,,,,,,,,,,,,,,,,,,,,,,,,,,,,,,,,,,,,,,,,4,4,TRUE,0.056097561,-0.343902439,1,0,0,0,0,0,0,1,7,,,,,,,,,,,,,
,,,,,,,,,784,001,ABC,2022-01-22_12h36.16.330,workingMemoryTest,2020.2.10,MacIntel,60,,,,,,,,,,,,,,,,,,,,,,,,,,,,,,,,,,,,,,,,,,,,,,,,,,,,,,,,,,,,,,,,,,,,,,,,,,,,,,,,,,,,,,,,,,,,,,,,,,,,,,4,4,TRUE,0.004878049,-0.329268293,1,0,0,0,1,1,1,1,7,,,,,,,,,,,,,
,,,,,,,,,784,001,ABC,2022-01-22_12h36.16.330,workingMemoryTest,2020.2.10,MacIntel,60,,,,,,,,,,,,,,,,,,,,,,,,,,,,,,,,,,,,,,,,,,,,,,,,,,,,,,,,,,,,,,,,,,,,,,,,,,,,,,,,,,,,,,,,,,,,,,,,,,,,,,4,4,TRUE,0.023170732,-0.31097561,1,0,0,0,2,2,2,1,7,,,,,,,,,,,,,
,,,,,,,,,784,001,ABC,2022-01-22_12h36.16.330,workingMemoryTest,2020.2.10,MacIntel,60,,,,,,,,,,,,,,,,,,,,,,,,,,,,,,,,,,,,,,,,,,,,,,,,,,,,,,,,,,,,,,,,,,,,,,,,,,,,,,,,,,,,,,,,,,,,,,,,,,,,,,,,,,,,,,,,,,,,,0,5,5,5,1,blockSeven.xlsx,Ready for the next set? ,,,,,
,,,,,,,,,784,001,ABC,2022-01-22_12h36.16.330,workingMemoryTest,2020.2.10,MacIntel,60,,,,,,,,,,,,,,,,,,,,,,,,,,,,,,,,,,,,,,,,,,,,,,,,,,,,,,,,,,,,,,,,,,,,,,,,,,,,,,,,,,,,,,,,,,,,,,,,,,,,,,4,4,TRUE,0.08902439,-0.364634146,1,0,0,0,0,0,0,1,8,,,,,,,,,,,,,
,,,,,,,,,784,001,ABC,2022-01-22_12h36.16.330,workingMemoryTest,2020.2.10,MacIntel,60,,,,,,,,,,,,,,,,,,,,,,,,,,,,,,,,,,,,,,,,,,,,,,,,,,,,,,,,,,,,,,,,,,,,,,,,,,,,,,,,,,,,,,,,,,,,,,,,,,,,,,4,4,TRUE,0.048780488,-0.324390244,1,0,0,0,1,1,1,1,8,,,,,,,,,,,,,
,,,,,,,,,784,001,ABC,2022-01-22_12h36.16.330,workingMemoryTest,2020.2.10,MacIntel,60,,,,,,,,,,,,,,,,,,,,,,,,,,,,,,,,,,,,,,,,,,,,,,,,,,,,,,,,,,,,,,,,,,,,,,,,,,,,,,,,,,,,,,,,,,,,,,,,,,,,,,4,4,TRUE,0.07195122,-0.330487805,1,0,0,0,2,2,2,1,8,,,,,,,,,,,,,
,,,,,,,,,784,001,ABC,2022-01-22_12h36.16.330,workingMemoryTest,2020.2.10,MacIntel,60,,,,,,,,,,,,,,,,,,,,,,,,,,,,,,,,,,,,,,,,,,,,,,,,,,,,,,,,,,,,,,,,,,,,,,,,,,,,,,,,,,,,,,,,,,,,,,,,,,,,,,,,,,,,,,,,,,,,,0,6,6,6,1,blockEight.xlsx,Ready for the next set? ,,,,,
,,,,,,,,,784,001,ABC,2022-01-22_12h36.16.330,workingMemoryTest,2020.2.10,MacIntel,60,,,,,,,,,,,,,,,,,,,,,,,,,,,,,,,,,,,,,,,,,,,,,,,,,,,,,,,,,,,,,,,,,,,,,,,,,,,,,,,,,,,,,,,,,,,,,,,,,,,,,,5,5,TRUE,0.024390244,-0.32804878,1,0,0,0,0,0,0,1,9,,,,,,,,,,,,,
,,,,,,,,,784,001,ABC,2022-01-22_12h36.16.330,workingMemoryTest,2020.2.10,MacIntel,60,,,,,,,,,,,,,,,,,,,,,,,,,,,,,,,,,,,,,,,,,,,,,,,,,,,,,,,,,,,,,,,,,,,,,,,,,,,,,,,,,,,,,,,,,,,,,,,,,,,,,,5,5,TRUE,0.130487805,-0.36097561,1,0,0,0,1,1,1,1,9,,,,,,,,,,,,,
,,,,,,,,,784,001,ABC,2022-01-22_12h36.16.330,workingMemoryTest,2020.2.10,MacIntel,60,,,,,,,,,,,,,,,,,,,,,,,,,,,,,,,,,,,,,,,,,,,,,,,,,,,,,,,,,,,,,,,,,,,,,,,,,,,,,,,,,,,,,,,,,,,,,,,,,,,,,,5,5,TRUE,0.109756098,-0.342682927,1,0,0,0,2,2,2,1,9,,,,,,,,,,,,,
,,,,,,,,,784,001,ABC,2022-01-22_12h36.16.330,workingMemoryTest,2020.2.10,MacIntel,60,,,,,,,,,,,,,,,,,,,,,,,,,,,,,,,,,,,,,,,,,,,,,,,,,,,,,,,,,,,,,,,,,,,,,,,,,,,,,,,,,,,,,,,,,,,,,,,,,,,,,,,,,,,,,,,,,,,,,0,7,7,7,1,blockNine.xlsx,Ready for the next set? ,,,,,
,,,,,,,,,784,001,ABC,2022-01-22_12h36.16.330,workingMemoryTest,2020.2.10,MacIntel,60,,,,,,,,,,,,,,,,,,,,,,,,,,,,,,,,,,,,,,,,,,,,,,,,,,,,,,,,,,,,,,,,,,,,,,,,,,,,,,,,,,,,,,,,,,,,,,,,,,,,,,5,5,FALSE,0.076829268,-0.363414634,1,0,0,0,0,0,0,1,10,,,,,,,,,,,,,
,,,,,,,,,784,001,ABC,2022-01-22_12h36.16.330,workingMemoryTest,2020.2.10,MacIntel,60,,,,,,,,,,,,,,,,,,,,,,,,,,,,,,,,,,,,,,,,,,,,,,,,,,,,,,,,,,,,,,,,,,,,,,,,,,,,,,,,,,,,,,,,,,,,,,,,,,,,,,5,5,TRUE,-0.036585366,-0.345121951,1,0,0,0,1,1,1,1,10,,,,,,,,,,,,,
,,,,,,,,,784,001,ABC,2022-01-22_12h36.16.330,workingMemoryTest,2020.2.10,MacIntel,60,,,,,,,,,,,,,,,,,,,,,,,,,,,,,,,,,,,,,,,,,,,,,,,,,,,,,,,,,,,,,,,,,,,,,,,,,,,,,,,,,,,,,,,,,,,,,,,,,,,,,,5,5,TRUE,0.068292683,-0.329268293,1,0,0,0,2,2,2,1,10,,,,,,,,,,,,,
,,,,,,,,,784,001,ABC,2022-01-22_12h36.16.330,workingMemoryTest,2020.2.10,MacIntel,60,,,,,,,,,,,,,,,,,,,,,,,,,,,,,,,,,,,,,,,,,,,,,,,,,,,,,,,,,,,,,,,,,,,,,,,,,,,,,,,,,,,,,,,,,,,,,,,,,,,,,,,,,,,,,,,,,,,,,0,8,8,8,1,blockTen.xlsx,Ready for the next set? ,,,,,
,,,,,,,,,784,001,ABC,2022-01-22_12h36.16.330,workingMemoryTest,2020.2.10,MacIntel,60,,,,,,,,,,,,,,,,,,,,,,,,,,,,,,,,,,,,,,,,,,,,,,,,,,,,,,,,,,,,,,,,,,,,,,,,,,,,,,,,,,,,,,,,,,,,,,,,,,,,,,5,5,TRUE,0.051219512,-0.345121951,1,0,0,0,0,0,0,1,11,,,,,,,,,,,,,
,,,,,,,,,784,001,ABC,2022-01-22_12h36.16.330,workingMemoryTest,2020.2.10,MacIntel,60,,,,,,,,,,,,,,,,,,,,,,,,,,,,,,,,,,,,,,,,,,,,,,,,,,,,,,,,,,,,,,,,,,,,,,,,,,,,,,,,,,,,,,,,,,,,,,,,,,,,,,5,5,TRUE,0.119512195,-0.319512195,1,0,0,0,1,1,1,1,11,,,,,,,,,,,,,
,,,,,,,,,784,001,ABC,2022-01-22_12h36.16.330,workingMemoryTest,2020.2.10,MacIntel,60,,,,,,,,,,,,,,,,,,,,,,,,,,,,,,,,,,,,,,,,,,,,,,,,,,,,,,,,,,,,,,,,,,,,,,,,,,,,,,,,,,,,,,,,,,,,,,,,,,,,,,5,5,FALSE,-0.041463415,-0.36097561,1,0,0,0,2,2,2,1,11,,,,,,,,,,,,,
,,,,,,,,,784,001,ABC,2022-01-22_12h36.16.330,workingMemoryTest,2020.2.10,MacIntel,60,,,,,,,,,,,,,,,,,,,,,,,,,,,,,,,,,,,,,,,,,,,,,,,,,,,,,,,,,,,,,,,,,,,,,,,,,,,,,,,,,,,,,,,,,,,,,,,,,,,,,,,,,,,,,,,,,,,,,0,9,9,9,1,blockEleven.xlsx,Ready for the next set? ,,,,,
,,,,,,,,,784,001,ABC,2022-01-22_12h36.16.330,workingMemoryTest,2020.2.10,MacIntel,60,,,,,,,,,,,,,,,,,,,,,,,,,,,,,,,,,,,,,,,,,,,,,,,,,,,,,,,,,,,,,,,,,,,,,,,,,,,,,,,,,,,,,,,,,,,,,,,,,,,,,,5,5,FALSE,0.063414634,-0.331707317,1,0,0,0,0,0,0,1,12,,,,,,,,,,,,,
,,,,,,,,,784,001,ABC,2022-01-22_12h36.16.330,workingMemoryTest,2020.2.10,MacIntel,60,,,,,,,,,,,,,,,,,,,,,,,,,,,,,,,,,,,,,,,,,,,,,,,,,,,,,,,,,,,,,,,,,,,,,,,,,,,,,,,,,,,,,,,,,,,,,,,,,,,,,,5,5,FALSE,0.062195122,-0.332926829,1,0,0,0,1,1,1,1,12,,,,,,,,,,,,,
,,,,,,,,,784,001,ABC,2022-01-22_12h36.16.330,workingMemoryTest,2020.2.10,MacIntel,60,,,,,,,,,,,,,,,,,,,,,,,,,,,,,,,,,,,,,,,,,,,,,,,,,,,,,,,,,,,,,,,,,,,,,,,,,,,,,,,,,,,,,,,,,,,,,,,,,,,,,,,,,,,,,,,,,,,,,,,,,,,,0,0,0,0,1
,,,,,,,,,784,001,ABC,2022-01-22_12h36.16.330,workingMemoryTest,2020.2.10,MacIntel,60,,,,,,,,,,,,,,,,,,,,,,,,,,,,,,,,,,0,2,2,2,1,0,0,1,,,,,,,,,,,,,,,,,,,,,,,,,,,,,,,,,,,,,,,,,,,,,,,,,,,,,,,,,,,,,,,,,,,,,,,,,,,,,,,,,,,,,,,
