typedNumber,typingRT,answerCorr,typingLoopPract.thisRepN,typingLoopPract.thisTrialN,typingLoopPract.thisN,typingLoopPract.thisIndex,typingLoopPract.ran,productNo,participant,session,group,date,expName,psychopyVersion,OS,frameRate,typingRTrial.thisRepN,typingRTrial.thisTrialN,typingRTrial.thisN,typingRTrial.thisIndex,typingRTrial.ran,typedAudioPrac,audioPracRT,audioPrCorr,audioLoopPrac.thisRepN,audioLoopPrac.thisTrialN,audioLoopPrac.thisN,audioLoopPrac.thisIndex,audioLoopPrac.ran,audiospan,digits_audio,soundsJS,EgnerDSresponse,EgnerDSrt,EgnerDSscore,audioRTrial.thisRepN,audioRTrial.thisTrialN,audioRTrial.thisN,audioRTrial.thisIndex,audioRTrial.ran,digitSpan,audioCondLoop.thisRepN,audioCondLoop.thisTrialN,audioCondLoop.thisN,audioCondLoop.thisIndex,audioCondLoop.ran,Condition,WAISDSresponse,WAISDSrt,WAISDSscore,audioRTrialwais.thisRepN,audioRTrialwais.thisTrialN,audioRTrialwais.thisN,audioRTrialwais.thisIndex,audioRTrialwais.ran,digitSpanWAIS,digits_audioWAIS,soundsWAIS,audioCondLoopwais.thisRepN,audioCondLoopwais.thisTrialN,audioCondLoopwais.thisN,audioCondLoopwais.thisIndex,audioCondLoopwais.ran,ConditionWAIS,TaskB.thisRepN,TaskB.thisTrialN,TaskB.thisN,TaskB.thisIndex,TaskB.ran,TaskOrderCond.thisRepN,TaskOrderCond.thisTrialN,TaskOrderCond.thisN,TaskOrderCond.thisIndex,TaskOrderCond.ran,nRepsTask1,nRepsTask2,nRepsTask3,correct,respMousePrac.x,respMousePrac.y,respMousePrac.leftButton,respMousePrac.midButton,respMousePrac.rightButton,vptLoopPrac.thisRepN,vptLoopPrac.thisTrialN,vptLoopPrac.thisN,vptLoopPrac.thisIndex,vptLoopPrac.ran,tiles,rows,cols,vptCorrect,respMouse.x,respMouse.y,respMouse.leftButton,respMouse.midButton,respMouse.rightButton,trials.thisRepN,trials.thisTrialN,trials.thisN,trials.thisIndex,trials.ran,noOfBlocks,blockDuration,conditionLoop.thisRepN,conditionLoop.thisTrialN,conditionLoop.thisN,conditionLoop.thisIndex,conditionLoop.ran,sheet,readyMsg,TaskC.thisRepN,TaskC.thisTrialN,TaskC.thisN,TaskC.thisIndex,TaskC.ran,typedAnswer,multiplyRT,multiplyCorr,multiLoopPrac.thisRepN,multiLoopPrac.thisTrialN,multiLoopPrac.thisN,multiLoopPrac.thisIndex,multiLoopPrac.ran,problem,OperandType,productType,Answer,multiRTrial.thisRepN,multiRTrial.thisTrialN,multiRTrial.thisN,multiRTrial.thisIndex,multiRTrial.ran,trials_2.thisRepN,trials_2.thisTrialN,trials_2.thisN,trials_2.thisIndex,trials_2.ran,fileee,TaskA.thisRepN,TaskA.thisTrialN,TaskA.thisN,TaskA.thisIndex,TaskA.ran
41,1.8759,1,0,0,0,1,1,41,824,001,BCA,2022-01-12_09h28.17.839,workingMemoryTest,2020.2.10,Win32,60,,,,,,,,,,,,,,,,,,,,,,,,,,,,,,,,,,,,,,,,,,,,,,,,,,,,,,,,,,,,,,,,,,,,,,,,,,,,,,,,,,,,,,,,,,,,,,,,,,,,,,,,,,,,,,,,,,,,,,,,,,,,,,,,
59,1.7588,1,0,1,1,2,1,59,824,001,BCA,2022-01-12_09h28.17.839,workingMemoryTest,2020.2.10,Win32,60,,,,,,,,,,,,,,,,,,,,,,,,,,,,,,,,,,,,,,,,,,,,,,,,,,,,,,,,,,,,,,,,,,,,,,,,,,,,,,,,,,,,,,,,,,,,,,,,,,,,,,,,,,,,,,,,,,,,,,,,,,,,,,,,
39,1.5242,1,0,2,2,0,1,39,824,001,BCA,2022-01-12_09h28.17.839,workingMemoryTest,2020.2.10,Win32,60,,,,,,,,,,,,,,,,,,,,,,,,,,,,,,,,,,,,,,,,,,,,,,,,,,,,,,,,,,,,,,,,,,,,,,,,,,,,,,,,,,,,,,,,,,,,,,,,,,,,,,,,,,,,,,,,,,,,,,,,,,,,,,,,
64,1.7106,1,,,,,,64,824,001,BCA,2022-01-12_09h28.17.839,workingMemoryTest,2020.2.10,Win32,60,0,0,0,26,1,,,,,,,,,,,,,,,,,,,,,,,,,,,,,,,,,,,,,,,,,,,,,,,,,,,,,,,,,,,,,,,,,,,,,,,,,,,,,,,,,,,,,,,,,,,,,,,,,,,,,,,,,,,,,,,,,,,,,,,,,,,
27,1.5017,1,,,,,,27,824,001,BCA,2022-01-12_09h28.17.839,workingMemoryTest,2020.2.10,Win32,60,0,1,1,12,1,,,,,,,,,,,,,,,,,,,,,,,,,,,,,,,,,,,,,,,,,,,,,,,,,,,,,,,,,,,,,,,,,,,,,,,,,,,,,,,,,,,,,,,,,,,,,,,,,,,,,,,,,,,,,,,,,,,,,,,,,,,
28,1.1925,1,,,,,,28,824,001,BCA,2022-01-12_09h28.17.839,workingMemoryTest,2020.2.10,Win32,60,0,2,2,13,1,,,,,,,,,,,,,,,,,,,,,,,,,,,,,,,,,,,,,,,,,,,,,,,,,,,,,,,,,,,,,,,,,,,,,,,,,,,,,,,,,,,,,,,,,,,,,,,,,,,,,,,,,,,,,,,,,,,,,,,,,,,
63,2.0532,1,,,,,,63,824,001,BCA,2022-01-12_09h28.17.839,workingMemoryTest,2020.2.10,Win32,60,0,3,3,25,1,,,,,,,,,,,,,,,,,,,,,,,,,,,,,,,,,,,,,,,,,,,,,,,,,,,,,,,,,,,,,,,,,,,,,,,,,,,,,,,,,,,,,,,,,,,,,,,,,,,,,,,,,,,,,,,,,,,,,,,,,,,
24,1.3551,1,,,,,,24,824,001,BCA,2022-01-12_09h28.17.839,workingMemoryTest,2020.2.10,Win32,60,0,4,4,11,1,,,,,,,,,,,,,,,,,,,,,,,,,,,,,,,,,,,,,,,,,,,,,,,,,,,,,,,,,,,,,,,,,,,,,,,,,,,,,,,,,,,,,,,,,,,,,,,,,,,,,,,,,,,,,,,,,,,,,,,,,,,
45,1.5119,1,,,,,,45,824,001,BCA,2022-01-12_09h28.17.839,workingMemoryTest,2020.2.10,Win32,60,0,5,5,20,1,,,,,,,,,,,,,,,,,,,,,,,,,,,,,,,,,,,,,,,,,,,,,,,,,,,,,,,,,,,,,,,,,,,,,,,,,,,,,,,,,,,,,,,,,,,,,,,,,,,,,,,,,,,,,,,,,,,,,,,,,,,
49,1.4411,1,,,,,,49,824,001,BCA,2022-01-12_09h28.17.839,workingMemoryTest,2020.2.10,Win32,60,0,6,6,22,1,,,,,,,,,,,,,,,,,,,,,,,,,,,,,,,,,,,,,,,,,,,,,,,,,,,,,,,,,,,,,,,,,,,,,,,,,,,,,,,,,,,,,,,,,,,,,,,,,,,,,,,,,,,,,,,,,,,,,,,,,,,
12,1.3247,1,,,,,,12,824,001,BCA,2022-01-12_09h28.17.839,workingMemoryTest,2020.2.10,Win32,60,0,7,7,4,1,,,,,,,,,,,,,,,,,,,,,,,,,,,,,,,,,,,,,,,,,,,,,,,,,,,,,,,,,,,,,,,,,,,,,,,,,,,,,,,,,,,,,,,,,,,,,,,,,,,,,,,,,,,,,,,,,,,,,,,,,,,
32,1.3314,1,,,,,,32,824,001,BCA,2022-01-12_09h28.17.839,workingMemoryTest,2020.2.10,Win32,60,0,8,8,15,1,,,,,,,,,,,,,,,,,,,,,,,,,,,,,,,,,,,,,,,,,,,,,,,,,,,,,,,,,,,,,,,,,,,,,,,,,,,,,,,,,,,,,,,,,,,,,,,,,,,,,,,,,,,,,,,,,,,,,,,,,,,
6,1.3176,1,,,,,,6,824,001,BCA,2022-01-12_09h28.17.839,workingMemoryTest,2020.2.10,Win32,60,0,9,9,0,1,,,,,,,,,,,,,,,,,,,,,,,,,,,,,,,,,,,,,,,,,,,,,,,,,,,,,,,,,,,,,,,,,,,,,,,,,,,,,,,,,,,,,,,,,,,,,,,,,,,,,,,,,,,,,,,,,,,,,,,,,,,
72,1.8301,1,,,,,,72,824,001,BCA,2022-01-12_09h28.17.839,workingMemoryTest,2020.2.10,Win32,60,0,10,10,27,1,,,,,,,,,,,,,,,,,,,,,,,,,,,,,,,,,,,,,,,,,,,,,,,,,,,,,,,,,,,,,,,,,,,,,,,,,,,,,,,,,,,,,,,,,,,,,,,,,,,,,,,,,,,,,,,,,,,,,,,,,,,
10,1.119,1,,,,,,10,824,001,BCA,2022-01-12_09h28.17.839,workingMemoryTest,2020.2.10,Win32,60,0,11,11,3,1,,,,,,,,,,,,,,,,,,,,,,,,,,,,,,,,,,,,,,,,,,,,,,,,,,,,,,,,,,,,,,,,,,,,,,,,,,,,,,,,,,,,,,,,,,,,,,,,,,,,,,,,,,,,,,,,,,,,,,,,,,,
35,1.2493,1,,,,,,35,824,001,BCA,2022-01-12_09h28.17.839,workingMemoryTest,2020.2.10,Win32,60,0,12,12,16,1,,,,,,,,,,,,,,,,,,,,,,,,,,,,,,,,,,,,,,,,,,,,,,,,,,,,,,,,,,,,,,,,,,,,,,,,,,,,,,,,,,,,,,,,,,,,,,,,,,,,,,,,,,,,,,,,,,,,,,,,,,,
14,1.1641,1,,,,,,14,824,001,BCA,2022-01-12_09h28.17.839,workingMemoryTest,2020.2.10,Win32,60,0,13,13,5,1,,,,,,,,,,,,,,,,,,,,,,,,,,,,,,,,,,,,,,,,,,,,,,,,,,,,,,,,,,,,,,,,,,,,,,,,,,,,,,,,,,,,,,,,,,,,,,,,,,,,,,,,,,,,,,,,,,,,,,,,,,,
9,1.0539,1,,,,,,9,824,001,BCA,2022-01-12_09h28.17.839,workingMemoryTest,2020.2.10,Win32,60,0,14,14,1,1,,,,,,,,,,,,,,,,,,,,,,,,,,,,,,,,,,,,,,,,,,,,,,,,,,,,,,,,,,,,,,,,,,,,,,,,,,,,,,,,,,,,,,,,,,,,,,,,,,,,,,,,,,,,,,,,,,,,,,,,,,,
18,1.1965,1,,,,,,18,824,001,BCA,2022-01-12_09h28.17.839,workingMemoryTest,2020.2.10,Win32,60,0,15,15,8,1,,,,,,,,,,,,,,,,,,,,,,,,,,,,,,,,,,,,,,,,,,,,,,,,,,,,,,,,,,,,,,,,,,,,,,,,,,,,,,,,,,,,,,,,,,,,,,,,,,,,,,,,,,,,,,,,,,,,,,,,,,,
16,1.3104,1,,,,,,16,824,001,BCA,2022-01-12_09h28.17.839,workingMemoryTest,2020.2.10,Win32,60,0,16,16,7,1,,,,,,,,,,,,,,,,,,,,,,,,,,,,,,,,,,,,,,,,,,,,,,,,,,,,,,,,,,,,,,,,,,,,,,,,,,,,,,,,,,,,,,,,,,,,,,,,,,,,,,,,,,,,,,,,,,,,,,,,,,,
36,1.8495,1,,,,,,36,824,001,BCA,2022-01-12_09h28.17.839,workingMemoryTest,2020.2.10,Win32,60,0,17,17,17,1,,,,,,,,,,,,,,,,,,,,,,,,,,,,,,,,,,,,,,,,,,,,,,,,,,,,,,,,,,,,,,,,,,,,,,,,,,,,,,,,,,,,,,,,,,,,,,,,,,,,,,,,,,,,,,,,,,,,,,,,,,,
8,1.0414,1,,,,,,8,824,001,BCA,2022-01-12_09h28.17.839,workingMemoryTest,2020.2.10,Win32,60,0,18,18,2,1,,,,,,,,,,,,,,,,,,,,,,,,,,,,,,,,,,,,,,,,,,,,,,,,,,,,,,,,,,,,,,,,,,,,,,,,,,,,,,,,,,,,,,,,,,,,,,,,,,,,,,,,,,,,,,,,,,,,,,,,,,,
54,1.541,1,,,,,,54,824,001,BCA,2022-01-12_09h28.17.839,workingMemoryTest,2020.2.10,Win32,60,0,19,19,23,1,,,,,,,,,,,,,,,,,,,,,,,,,,,,,,,,,,,,,,,,,,,,,,,,,,,,,,,,,,,,,,,,,,,,,,,,,,,,,,,,,,,,,,,,,,,,,,,,,,,,,,,,,,,,,,,,,,,,,,,,,,,
30,1.2633,1,,,,,,30,824,001,BCA,2022-01-12_09h28.17.839,workingMemoryTest,2020.2.10,Win32,60,0,20,20,14,1,,,,,,,,,,,,,,,,,,,,,,,,,,,,,,,,,,,,,,,,,,,,,,,,,,,,,,,,,,,,,,,,,,,,,,,,,,,,,,,,,,,,,,,,,,,,,,,,,,,,,,,,,,,,,,,,,,,,,,,,,,,
56,1.2519,1,,,,,,56,824,001,BCA,2022-01-12_09h28.17.839,workingMemoryTest,2020.2.10,Win32,60,0,21,21,24,1,,,,,,,,,,,,,,,,,,,,,,,,,,,,,,,,,,,,,,,,,,,,,,,,,,,,,,,,,,,,,,,,,,,,,,,,,,,,,,,,,,,,,,,,,,,,,,,,,,,,,,,,,,,,,,,,,,,,,,,,,,,
42,1.238,1,,,,,,42,824,001,BCA,2022-01-12_09h28.17.839,workingMemoryTest,2020.2.10,Win32,60,0,22,22,19,1,,,,,,,,,,,,,,,,,,,,,,,,,,,,,,,,,,,,,,,,,,,,,,,,,,,,,,,,,,,,,,,,,,,,,,,,,,,,,,,,,,,,,,,,,,,,,,,,,,,,,,,,,,,,,,,,,,,,,,,,,,,
48,1.4353,1,,,,,,48,824,001,BCA,2022-01-12_09h28.17.839,workingMemoryTest,2020.2.10,Win32,60,0,23,23,21,1,,,,,,,,,,,,,,,,,,,,,,,,,,,,,,,,,,,,,,,,,,,,,,,,,,,,,,,,,,,,,,,,,,,,,,,,,,,,,,,,,,,,,,,,,,,,,,,,,,,,,,,,,,,,,,,,,,,,,,,,,,,
20,1.0863,1,,,,,,20,824,001,BCA,2022-01-12_09h28.17.839,workingMemoryTest,2020.2.10,Win32,60,0,24,24,9,1,,,,,,,,,,,,,,,,,,,,,,,,,,,,,,,,,,,,,,,,,,,,,,,,,,,,,,,,,,,,,,,,,,,,,,,,,,,,,,,,,,,,,,,,,,,,,,,,,,,,,,,,,,,,,,,,,,,,,,,,,,,
21,1.2756,1,,,,,,21,824,001,BCA,2022-01-12_09h28.17.839,workingMemoryTest,2020.2.10,Win32,60,0,25,25,10,1,,,,,,,,,,,,,,,,,,,,,,,,,,,,,,,,,,,,,,,,,,,,,,,,,,,,,,,,,,,,,,,,,,,,,,,,,,,,,,,,,,,,,,,,,,,,,,,,,,,,,,,,,,,,,,,,,,,,,,,,,,,
15,1.2582,1,,,,,,15,824,001,BCA,2022-01-12_09h28.17.839,workingMemoryTest,2020.2.10,Win32,60,0,26,26,6,1,,,,,,,,,,,,,,,,,,,,,,,,,,,,,,,,,,,,,,,,,,,,,,,,,,,,,,,,,,,,,,,,,,,,,,,,,,,,,,,,,,,,,,,,,,,,,,,,,,,,,,,,,,,,,,,,,,,,,,,,,,,
40,1.2953,1,,,,,,40,824,001,BCA,2022-01-12_09h28.17.839,workingMemoryTest,2020.2.10,Win32,60,0,27,27,18,1,,,,,,,,,,,,,,,,,,,,,,,,,,,,,,,,,,,,,,,,,,,,,,,,,,,,,,,,,,,,,,,,,,,,,,,,,,,,,,,,,,,,,,,,,,,,,,,,,,,,,,,,,,,,,,,,,,,,,,,,,,,
,,,,,,,,,824,001,BCA,2022-01-12_09h28.17.839,workingMemoryTest,2020.2.10,Win32,60,,,,,,123,1.5186,1,0,0,0,0,1,practice,123,Audio/123.mp3,,,,,,,,,,,,,,,,,,,,,,,,,,,,,,,,,,,,,,,,,,,,,,,,,,,,,,,,,,,,,,,,,,,,,,,,,,,,,,,,,,,,,,,,,,,,,,,,,,,,,,,,,,,,,,,,
,,,,,,,,,824,001,BCA,2022-01-12_09h28.17.839,workingMemoryTest,2020.2.10,Win32,60,,,,,,321,1.318,1,0,1,1,1,1,practice,321,Audio/321.mp3,,,,,,,,,,,,,,,,,,,,,,,,,,,,,,,,,,,,,,,,,,,,,,,,,,,,,,,,,,,,,,,,,,,,,,,,,,,,,,,,,,,,,,,,,,,,,,,,,,,,,,,,,,,,,,,,
,,,,,,,,,824,001,BCA,2022-01-12_09h28.17.839,workingMemoryTest,2020.2.10,Win32,60,,,,,,911,1.2626,1,0,2,2,2,1,practice,911,Audio/911.mp3,,,,,,,,,,,,,,,,,,,,,,,,,,,,,,,,,,,,,,,,,,,,,,,,,,,,,,,,,,,,,,,,,,,,,,,,,,,,,,,,,,,,,,,,,,,,,,,,,,,,,,,,,,,,,,,,
,,,,,,,,,824,001,BCA,2022-01-12_09h28.17.839,workingMemoryTest,2020.2.10,Win32,60,,,,,,,,,,,,,,,46,Audio/46.mp3,46,1.4315,1,0,0,0,0,1,2,,,,,,,,,,,,,,,,,,,,,,,,,,,,,,,,,,,,,,,,,,,,,,,,,,,,,,,,,,,,,,,,,,,,,,,,,,,,,,,,,,,,,,,,,,,,,,,,,,,,,,,
,,,,,,,,,824,001,BCA,2022-01-12_09h28.17.839,workingMemoryTest,2020.2.10,Win32,60,,,,,,,,,,,,,,,,,,,,,,,,,,0,0,0,0,1,twoAudio.xlsx,,,,,,,,,,,,,,,,,,,,,,,,,,,,,,,,,,,,,,,,,,,,,,,,,,,,,,,,,,,,,,,,,,,,,,,,,,,,,,,,,,,,,,,,,,,,,,,,,
,,,,,,,,,824,001,BCA,2022-01-12_09h28.17.839,workingMemoryTest,2020.2.10,Win32,60,,,,,,,,,,,,,,,157,Audio/157.mp3,157,1.1786,1,0,0,0,0,1,3,,,,,,,,,,,,,,,,,,,,,,,,,,,,,,,,,,,,,,,,,,,,,,,,,,,,,,,,,,,,,,,,,,,,,,,,,,,,,,,,,,,,,,,,,,,,,,,,,,,,,,,
,,,,,,,,,824,001,BCA,2022-01-12_09h28.17.839,workingMemoryTest,2020.2.10,Win32,60,,,,,,,,,,,,,,,,,,,,,,,,,,0,1,1,1,1,threeAudio.xlsx,,,,,,,,,,,,,,,,,,,,,,,,,,,,,,,,,,,,,,,,,,,,,,,,,,,,,,,,,,,,,,,,,,,,,,,,,,,,,,,,,,,,,,,,,,,,,,,,,
,,,,,,,,,824,001,BCA,2022-01-12_09h28.17.839,workingMemoryTest,2020.2.10,Win32,60,,,,,,,,,,,,,,,6352,Audio/6352.mp3,6352,1.3539,1,0,0,0,0,1,4,,,,,,,,,,,,,,,,,,,,,,,,,,,,,,,,,,,,,,,,,,,,,,,,,,,,,,,,,,,,,,,,,,,,,,,,,,,,,,,,,,,,,,,,,,,,,,,,,,,,,,,
,,,,,,,,,824,001,BCA,2022-01-12_09h28.17.839,workingMemoryTest,2020.2.10,Win32,60,,,,,,,,,,,,,,,,,,,,,,,,,,0,2,2,2,1,fourAudio.xlsx,,,,,,,,,,,,,,,,,,,,,,,,,,,,,,,,,,,,,,,,,,,,,,,,,,,,,,,,,,,,,,,,,,,,,,,,,,,,,,,,,,,,,,,,,,,,,,,,,
,,,,,,,,,824,001,BCA,2022-01-12_09h28.17.839,workingMemoryTest,2020.2.10,Win32,60,,,,,,,,,,,,,,,59281,Audio/59281.mp3,59281,2.0597,1,0,0,0,0,1,5,,,,,,,,,,,,,,,,,,,,,,,,,,,,,,,,,,,,,,,,,,,,,,,,,,,,,,,,,,,,,,,,,,,,,,,,,,,,,,,,,,,,,,,,,,,,,,,,,,,,,,,
,,,,,,,,,824,001,BCA,2022-01-12_09h28.17.839,workingMemoryTest,2020.2.10,Win32,60,,,,,,,,,,,,,,,,,,,,,,,,,,0,3,3,3,1,fiveAudio.xlsx,,,,,,,,,,,,,,,,,,,,,,,,,,,,,,,,,,,,,,,,,,,,,,,,,,,,,,,,,,,,,,,,,,,,,,,,,,,,,,,,,,,,,,,,,,,,,,,,,
,,,,,,,,,824,001,BCA,2022-01-12_09h28.17.839,workingMemoryTest,2020.2.10,Win32,60,,,,,,,,,,,,,,,396172,Audio/396172.mp3,396172,2.028,1,0,0,0,0,1,6,,,,,,,,,,,,,,,,,,,,,,,,,,,,,,,,,,,,,,,,,,,,,,,,,,,,,,,,,,,,,,,,,,,,,,,,,,,,,,,,,,,,,,,,,,,,,,,,,,,,,,,
,,,,,,,,,824,001,BCA,2022-01-12_09h28.17.839,workingMemoryTest,2020.2.10,Win32,60,,,,,,,,,,,,,,,,,,,,,,,,,,0,4,4,4,1,sixAudio.xlsx,,,,,,,,,,,,,,,,,,,,,,,,,,,,,,,,,,,,,,,,,,,,,,,,,,,,,,,,,,,,,,,,,,,,,,,,,,,,,,,,,,,,,,,,,,,,,,,,,
,,,,,,,,,824,001,BCA,2022-01-12_09h28.17.839,workingMemoryTest,2020.2.10,Win32,60,,,,,,,,,,,,,,,8241973,Audio/8241973.mp3,829413,5.9797,0,0,0,0,0,1,7,,,,,,,,,,,,,,,,,,,,,,,,,,,,,,,,,,,,,,,,,,,,,,,,,,,,,,,,,,,,,,,,,,,,,,,,,,,,,,,,,,,,,,,,,,,,,,,,,,,,,,,
,,,,,,,,,824,001,BCA,2022-01-12_09h28.17.839,workingMemoryTest,2020.2.10,Win32,60,,,,,,,,,,,,,,,2814367,Audio/2814367.mp3,2814367,4.5153,1,0,1,1,1,1,7,,,,,,,,,,,,,,,,,,,,,,,,,,,,,,,,,,,,,,,,,,,,,,,,,,,,,,,,,,,,,,,,,,,,,,,,,,,,,,,,,,,,,,,,,,,,,,,,,,,,,,,
,,,,,,,,,824,001,BCA,2022-01-12_09h28.17.839,workingMemoryTest,2020.2.10,Win32,60,,,,,,,,,,,,,,,,,,,,,,,,,,0,5,5,5,1,sevenAudio.xlsx,,,,,,,,,,,,,,,,,,,,,,,,,,,,,,,,,,,,,,,,,,,,,,,,,,,,,,,,,,,,,,,,,,,,,,,,,,,,,,,,,,,,,,,,,,,,,,,,,
,,,,,,,,,824,001,BCA,2022-01-12_09h28.17.839,workingMemoryTest,2020.2.10,Win32,60,,,,,,,,,,,,,,,53827164,Audio/53827164.mp3,5371874,4.6825,0,0,0,0,0,1,8,,,,,,,,,,,,,,,,,,,,,,,,,,,,,,,,,,,,,,,,,,,,,,,,,,,,,,,,,,,,,,,,,,,,,,,,,,,,,,,,,,,,,,,,,,,,,,,,,,,,,,,
,,,,,,,,,824,001,BCA,2022-01-12_09h28.17.839,workingMemoryTest,2020.2.10,Win32,60,,,,,,,,,,,,,,,75241739,Audio/75241739.mp3,75214739,4.7584,0,0,1,1,1,1,8,,,,,,,,,,,,,,,,,,,,,,,,,,,,,,,,,,,,,,,,,,,,,,,,,,,,,,,,,,,,,,,,,,,,,,,,,,,,,,,,,,,,,,,,,,,,,,,,,,,,,,,
,,,,,,,,,824,001,BCA,2022-01-12_09h28.17.839,workingMemoryTest,2020.2.10,Win32,60,,,,,,,,,,,,,,,,,,,,,,,,,,,,,,,,97,2.6042,1,0,0,0,0,1,2,97,Audio/97.mp3,,,,,,,,,,,,,,,,,,,,,,,,,,,,,,,,,,,,,,,,,,,,,,,,,,,,,,,,,,,,,,,,,,,,,,,,,,,,,,,,,,,,,,
,,,,,,,,,824,001,BCA,2022-01-12_09h28.17.839,workingMemoryTest,2020.2.10,Win32,60,,,,,,,,,,,,,,,,,,,,,,,,,,,,,,,,,,,,,,,,,,,0,0,0,0,1,twoWAIS.xlsx,,,,,,,,,,,,,,,,,,,,,,,,,,,,,,,,,,,,,,,,,,,,,,,,,,,,,,,,,,,,,,,,,,,,,,,,,,,,,,,,
,,,,,,,,,824,001,BCA,2022-01-12_09h28.17.839,workingMemoryTest,2020.2.10,Win32,60,,,,,,,,,,,,,,,,,,,,,,,,,,,,,,,,582,1.5635,1,0,0,0,0,1,3,582,Audio/582.mp3,,,,,,,,,,,,,,,,,,,,,,,,,,,,,,,,,,,,,,,,,,,,,,,,,,,,,,,,,,,,,,,,,,,,,,,,,,,,,,,,,,,,,,
,,,,,,,,,824,001,BCA,2022-01-12_09h28.17.839,workingMemoryTest,2020.2.10,Win32,60,,,,,,,,,,,,,,,,,,,,,,,,,,,,,,,,,,,,,,,,,,,0,1,1,1,1,threeWAIS.xlsx,,,,,,,,,,,,,,,,,,,,,,,,,,,,,,,,,,,,,,,,,,,,,,,,,,,,,,,,,,,,,,,,,,,,,,,,,,,,,,,,
,,,,,,,,,824,001,BCA,2022-01-12_09h28.17.839,workingMemoryTest,2020.2.10,Win32,60,,,,,,,,,,,,,,,,,,,,,,,,,,,,,,,,7286,1.1639,1,0,0,0,0,1,4,7286,Audio/7286.mp3,,,,,,,,,,,,,,,,,,,,,,,,,,,,,,,,,,,,,,,,,,,,,,,,,,,,,,,,,,,,,,,,,,,,,,,,,,,,,,,,,,,,,,
,,,,,,,,,824,001,BCA,2022-01-12_09h28.17.839,workingMemoryTest,2020.2.10,Win32,60,,,,,,,,,,,,,,,,,,,,,,,,,,,,,,,,,,,,,,,,,,,0,2,2,2,1,fourWAIS.xlsx,,,,,,,,,,,,,,,,,,,,,,,,,,,,,,,,,,,,,,,,,,,,,,,,,,,,,,,,,,,,,,,,,,,,,,,,,,,,,,,,
,,,,,,,,,824,001,BCA,2022-01-12_09h28.17.839,workingMemoryTest,2020.2.10,Win32,60,,,,,,,,,,,,,,,,,,,,,,,,,,,,,,,,42731,1.6062,1,0,0,0,0,1,5,42731,Audio/42731.mp3,,,,,,,,,,,,,,,,,,,,,,,,,,,,,,,,,,,,,,,,,,,,,,,,,,,,,,,,,,,,,,,,,,,,,,,,,,,,,,,,,,,,,,
,,,,,,,,,824,001,BCA,2022-01-12_09h28.17.839,workingMemoryTest,2020.2.10,Win32,60,,,,,,,,,,,,,,,,,,,,,,,,,,,,,,,,,,,,,,,,,,,0,3,3,3,1,fiveWAIS.xlsx,,,,,,,,,,,,,,,,,,,,,,,,,,,,,,,,,,,,,,,,,,,,,,,,,,,,,,,,,,,,,,,,,,,,,,,,,,,,,,,,
,,,,,,,,,824,001,BCA,2022-01-12_09h28.17.839,workingMemoryTest,2020.2.10,Win32,60,,,,,,,,,,,,,,,,,,,,,,,,,,,,,,,,392487,2.0369,1,0,0,0,0,1,6,392487,Audio/392487.mp3,,,,,,,,,,,,,,,,,,,,,,,,,,,,,,,,,,,,,,,,,,,,,,,,,,,,,,,,,,,,,,,,,,,,,,,,,,,,,,,,,,,,,,
,,,,,,,,,824,001,BCA,2022-01-12_09h28.17.839,workingMemoryTest,2020.2.10,Win32,60,,,,,,,,,,,,,,,,,,,,,,,,,,,,,,,,,,,,,,,,,,,0,4,4,4,1,sixWAIS.xlsx,,,,,,,,,,,,,,,,,,,,,,,,,,,,,,,,,,,,,,,,,,,,,,,,,,,,,,,,,,,,,,,,,,,,,,,,,,,,,,,,
,,,,,,,,,824,001,BCA,2022-01-12_09h28.17.839,workingMemoryTest,2020.2.10,Win32,60,,,,,,,,,,,,,,,,,,,,,,,,,,,,,,,,694718,9.2924,0,0,0,0,0,1,7,6917428,Audio/6917428.mp3,,,,,,,,,,,,,,,,,,,,,,,,,,,,,,,,,,,,,,,,,,,,,,,,,,,,,,,,,,,,,,,,,,,,,,,,,,,,,,,,,,,,,,
,,,,,,,,,824,001,BCA,2022-01-12_09h28.17.839,workingMemoryTest,2020.2.10,Win32,60,,,,,,,,,,,,,,,,,,,,,,,,,,,,,,,,4178936,3.8118,0,0,1,1,1,1,7,4179386,Audio/4179386.mp3,,,,,,,,,,,,,,,,,,,,,,,,,,,,,,,,,,,,,,,,,,,,,,,,,,,,,,,,,,,,,,,,,,,,,,,,,,,,,,,,,,,,,,
,,,,,,,,,824,001,BCA,2022-01-12_09h28.17.839,workingMemoryTest,2020.2.10,Win32,60,,,,,,,,,,,,,,,,,,,,,,,,,,,,,,,,,,,,,,,,,,,,,,,,,0,0,0,0,1,,,,,,,,,,,,,,,,,,,,,,,,,,,,,,,,,,,,,,,,,,,,,,,,,,,,,,,,,,,,,,,,,,,,,,,,,,,
,,,,,,,,,824,001,BCA,2022-01-12_09h28.17.839,workingMemoryTest,2020.2.10,Win32,60,,,,,,,,,,,,,,,,,,,,,,,,,,,,,,,,,,,,,,,,,,,,,,,,,,,,,,0,0,0,0,1,0,1,0,,,,,,,,,,,,,,,,,,,,,,,,,,,,,,,,,,,,,,,,,,,,,,,,,,,,,,,,,,,,,,,,,,,
,,,,,,,,,824,001,BCA,2022-01-12_09h28.17.839,workingMemoryTest,2020.2.10,Win32,60,,,,,,,,,,,,,,,,,,,,,,,,,,,,,,,,,,,,,,,,,,,,,,,,,,,,,,,,,,,,,,TRUE,0.000925939,-0.344444514,1,0,0,0,0,0,0,1,,3,3,,,,,,,,,,,,,,,,,,,,,,,,,,,,,,,,,,,,,,,,,,,,,,,,,,,,,
,,,,,,,,,824,001,BCA,2022-01-12_09h28.17.839,workingMemoryTest,2020.2.10,Win32,60,,,,,,,,,,,,,,,,,,,,,,,,,,,,,,,,,,,,,,,,,,,,,,,,,,,,,,,,,,,,,,TRUE,0.057407478,-0.349074143,1,0,0,0,1,1,2,1,,3,3,,,,,,,,,,,,,,,,,,,,,,,,,,,,,,,,,,,,,,,,,,,,,,,,,,,,,
,,,,,,,,,824,001,BCA,2022-01-12_09h28.17.839,workingMemoryTest,2020.2.10,Win32,60,,,,,,,,,,,,,,,,,,,,,,,,,,,,,,,,,,,,,,,,,,,,,,,,,,,,,,,,,,,,,,TRUE,-0.052777765,-0.340740753,1,0,0,0,2,2,1,1,,3,3,,,,,,,,,,,,,,,,,,,,,,,,,,,,,,,,,,,,,,,,,,,,,,,,,,,,,
,,,,,,,,,824,001,BCA,2022-01-12_09h28.17.839,workingMemoryTest,2020.2.10,Win32,60,,,,,,,,,,,,,,,,,,,,,,,,,,,,,,,,,,,,,,,,,,,,,,,,,,,,,,,,,,,,,,,,,,,,,,,,,,2,2,TRUE,0.02592594,-0.359259272,1,0,0,0,0,0,0,1,2,2,,,,,,,,,,,,,,,,,,,,,,,,,,,,,,,,,,,,,,,,
,,,,,,,,,824,001,BCA,2022-01-12_09h28.17.839,workingMemoryTest,2020.2.10,Win32,60,,,,,,,,,,,,,,,,,,,,,,,,,,,,,,,,,,,,,,,,,,,,,,,,,,,,,,,,,,,,,,,,,,,,,,,,,,2,2,TRUE,0.003703717,-0.33703705,1,0,0,0,1,1,1,1,2,2,,,,,,,,,,,,,,,,,,,,,,,,,,,,,,,,,,,,,,,,
,,,,,,,,,824,001,BCA,2022-01-12_09h28.17.839,workingMemoryTest,2020.2.10,Win32,60,,,,,,,,,,,,,,,,,,,,,,,,,,,,,,,,,,,,,,,,,,,,,,,,,,,,,,,,,,,,,,,,,,,,,,,,,,2,2,TRUE,-0.050925913,-0.321296365,1,0,0,0,2,2,2,1,2,2,,,,,,,,,,,,,,,,,,,,,,,,,,,,,,,,,,,,,,,,
,,,,,,,,,824,001,BCA,2022-01-12_09h28.17.839,workingMemoryTest,2020.2.10,Win32,60,,,,,,,,,,,,,,,,,,,,,,,,,,,,,,,,,,,,,,,,,,,,,,,,,,,,,,,,,,,,,,,,,,,,,,,,,,,,,,,,,,,,,,,,,0,0,0,0,1,blockTwo.xlsx,Ready for the next set? ,,,,,,,,,,,,,,,,,,,,,,,,,,,,,,,,,
,,,,,,,,,824,001,BCA,2022-01-12_09h28.17.839,workingMemoryTest,2020.2.10,Win32,60,,,,,,,,,,,,,,,,,,,,,,,,,,,,,,,,,,,,,,,,,,,,,,,,,,,,,,,,,,,,,,,,,,,,,,,,,,3,3,TRUE,-0.031481469,-0.354629642,1,0,0,0,0,0,0,1,3,2,,,,,,,,,,,,,,,,,,,,,,,,,,,,,,,,,,,,,,,,
,,,,,,,,,824,001,BCA,2022-01-12_09h28.17.839,workingMemoryTest,2020.2.10,Win32,60,,,,,,,,,,,,,,,,,,,,,,,,,,,,,,,,,,,,,,,,,,,,,,,,,,,,,,,,,,,,,,,,,,,,,,,,,,3,3,TRUE,0.043518589,-0.376851921,1,0,0,0,1,1,1,1,3,2,,,,,,,,,,,,,,,,,,,,,,,,,,,,,,,,,,,,,,,,
,,,,,,,,,824,001,BCA,2022-01-12_09h28.17.839,workingMemoryTest,2020.2.10,Win32,60,,,,,,,,,,,,,,,,,,,,,,,,,,,,,,,,,,,,,,,,,,,,,,,,,,,,,,,,,,,,,,,,,,,,,,,,,,3,3,TRUE,-0.062037025,-0.335185254,1,0,0,0,2,2,2,1,3,2,,,,,,,,,,,,,,,,,,,,,,,,,,,,,,,,,,,,,,,,
,,,,,,,,,824,001,BCA,2022-01-12_09h28.17.839,workingMemoryTest,2020.2.10,Win32,60,,,,,,,,,,,,,,,,,,,,,,,,,,,,,,,,,,,,,,,,,,,,,,,,,,,,,,,,,,,,,,,,,,,,,,,,,,,,,,,,,,,,,,,,,0,1,1,1,1,blockThree.xlsx,Ready for the next set? ,,,,,,,,,,,,,,,,,,,,,,,,,,,,,,,,,
,,,,,,,,,824,001,BCA,2022-01-12_09h28.17.839,workingMemoryTest,2020.2.10,Win32,60,,,,,,,,,,,,,,,,,,,,,,,,,,,,,,,,,,,,,,,,,,,,,,,,,,,,,,,,,,,,,,,,,,,,,,,,,,3,3,TRUE,-0.049999987,-0.341666679,1,0,0,0,0,0,0,1,4,2,,,,,,,,,,,,,,,,,,,,,,,,,,,,,,,,,,,,,,,,
,,,,,,,,,824,001,BCA,2022-01-12_09h28.17.839,workingMemoryTest,2020.2.10,Win32,60,,,,,,,,,,,,,,,,,,,,,,,,,,,,,,,,,,,,,,,,,,,,,,,,,,,,,,,,,,,,,,,,,,,,,,,,,,3,3,TRUE,-0.01759258,-0.385185198,1,0,0,0,1,1,1,1,4,2,,,,,,,,,,,,,,,,,,,,,,,,,,,,,,,,,,,,,,,,
,,,,,,,,,824,001,BCA,2022-01-12_09h28.17.839,workingMemoryTest,2020.2.10,Win32,60,,,,,,,,,,,,,,,,,,,,,,,,,,,,,,,,,,,,,,,,,,,,,,,,,,,,,,,,,,,,,,,,,,,,,,,,,,3,3,TRUE,-0.006481468,-0.339814884,1,0,0,0,2,2,2,1,4,2,,,,,,,,,,,,,,,,,,,,,,,,,,,,,,,,,,,,,,,,
,,,,,,,,,824,001,BCA,2022-01-12_09h28.17.839,workingMemoryTest,2020.2.10,Win32,60,,,,,,,,,,,,,,,,,,,,,,,,,,,,,,,,,,,,,,,,,,,,,,,,,,,,,,,,,,,,,,,,,,,,,,,,,,,,,,,,,,,,,,,,,0,2,2,2,1,blockFour.xlsx,Ready for the next set? ,,,,,,,,,,,,,,,,,,,,,,,,,,,,,,,,,
,,,,,,,,,824,001,BCA,2022-01-12_09h28.17.839,workingMemoryTest,2020.2.10,Win32,60,,,,,,,,,,,,,,,,,,,,,,,,,,,,,,,,,,,,,,,,,,,,,,,,,,,,,,,,,,,,,,,,,,,,,,,,,,4,4,TRUE,-0.038888876,-0.341666679,1,0,0,0,0,0,0,1,5,,,,,,,,,,,,,,,,,,,,,,,,,,,,,,,,,,,,,,,,,
,,,,,,,,,824,001,BCA,2022-01-12_09h28.17.839,workingMemoryTest,2020.2.10,Win32,60,,,,,,,,,,,,,,,,,,,,,,,,,,,,,,,,,,,,,,,,,,,,,,,,,,,,,,,,,,,,,,,,,,,,,,,,,,4,4,TRUE,-0.014814802,-0.35740742,1,0,0,0,1,1,1,1,5,,,,,,,,,,,,,,,,,,,,,,,,,,,,,,,,,,,,,,,,,
,,,,,,,,,824,001,BCA,2022-01-12_09h28.17.839,workingMemoryTest,2020.2.10,Win32,60,,,,,,,,,,,,,,,,,,,,,,,,,,,,,,,,,,,,,,,,,,,,,,,,,,,,,,,,,,,,,,,,,,,,,,,,,,4,4,TRUE,-0.005555542,-0.338888901,1,0,0,0,2,2,2,1,5,,,,,,,,,,,,,,,,,,,,,,,,,,,,,,,,,,,,,,,,,
,,,,,,,,,824,001,BCA,2022-01-12_09h28.17.839,workingMemoryTest,2020.2.10,Win32,60,,,,,,,,,,,,,,,,,,,,,,,,,,,,,,,,,,,,,,,,,,,,,,,,,,,,,,,,,,,,,,,,,,,,,,,,,,,,,,,,,,,,,,,,,0,3,3,3,1,blockFive.xlsx,Ready for the next set? ,,,,,,,,,,,,,,,,,,,,,,,,,,,,,,,,,
,,,,,,,,,824,001,BCA,2022-01-12_09h28.17.839,workingMemoryTest,2020.2.10,Win32,60,,,,,,,,,,,,,,,,,,,,,,,,,,,,,,,,,,,,,,,,,,,,,,,,,,,,,,,,,,,,,,,,,,,,,,,,,,4,4,TRUE,0.023148162,-0.316666735,1,0,0,0,0,0,0,1,6,,,,,,,,,,,,,,,,,,,,,,,,,,,,,,,,,,,,,,,,,
,,,,,,,,,824,001,BCA,2022-01-12_09h28.17.839,workingMemoryTest,2020.2.10,Win32,60,,,,,,,,,,,,,,,,,,,,,,,,,,,,,,,,,,,,,,,,,,,,,,,,,,,,,,,,,,,,,,,,,,,,,,,,,,4,4,TRUE,0.051851866,-0.340740753,1,0,0,0,1,1,1,1,6,,,,,,,,,,,,,,,,,,,,,,,,,,,,,,,,,,,,,,,,,
,,,,,,,,,824,001,BCA,2022-01-12_09h28.17.839,workingMemoryTest,2020.2.10,Win32,60,,,,,,,,,,,,,,,,,,,,,,,,,,,,,,,,,,,,,,,,,,,,,,,,,,,,,,,,,,,,,,,,,,,,,,,,,,4,4,TRUE,-0.027777765,-0.315740753,1,0,0,0,2,2,2,1,6,,,,,,,,,,,,,,,,,,,,,,,,,,,,,,,,,,,,,,,,,
,,,,,,,,,824,001,BCA,2022-01-12_09h28.17.839,workingMemoryTest,2020.2.10,Win32,60,,,,,,,,,,,,,,,,,,,,,,,,,,,,,,,,,,,,,,,,,,,,,,,,,,,,,,,,,,,,,,,,,,,,,,,,,,,,,,,,,,,,,,,,,0,4,4,4,1,blockSix.xlsx,Ready for the next set? ,,,,,,,,,,,,,,,,,,,,,,,,,,,,,,,,,
,,,,,,,,,824,001,BCA,2022-01-12_09h28.17.839,workingMemoryTest,2020.2.10,Win32,60,,,,,,,,,,,,,,,,,,,,,,,,,,,,,,,,,,,,,,,,,,,,,,,,,,,,,,,,,,,,,,,,,,,,,,,,,,4,4,TRUE,0.003703717,-0.370370383,1,0,0,0,0,0,0,1,7,,,,,,,,,,,,,,,,,,,,,,,,,,,,,,,,,,,,,,,,,
,,,,,,,,,824,001,BCA,2022-01-12_09h28.17.839,workingMemoryTest,2020.2.10,Win32,60,,,,,,,,,,,,,,,,,,,,,,,,,,,,,,,,,,,,,,,,,,,,,,,,,,,,,,,,,,,,,,,,,,,,,,,,,,4,4,TRUE,-0.060185173,-0.375000013,1,0,0,0,1,1,1,1,7,,,,,,,,,,,,,,,,,,,,,,,,,,,,,,,,,,,,,,,,,
,,,,,,,,,824,001,BCA,2022-01-12_09h28.17.839,workingMemoryTest,2020.2.10,Win32,60,,,,,,,,,,,,,,,,,,,,,,,,,,,,,,,,,,,,,,,,,,,,,,,,,,,,,,,,,,,,,,,,,,,,,,,,,,4,4,TRUE,0.006481551,-0.348148161,1,0,0,0,2,2,2,1,7,,,,,,,,,,,,,,,,,,,,,,,,,,,,,,,,,,,,,,,,,
,,,,,,,,,824,001,BCA,2022-01-12_09h28.17.839,workingMemoryTest,2020.2.10,Win32,60,,,,,,,,,,,,,,,,,,,,,,,,,,,,,,,,,,,,,,,,,,,,,,,,,,,,,,,,,,,,,,,,,,,,,,,,,,,,,,,,,,,,,,,,,0,5,5,5,1,blockSeven.xlsx,Ready for the next set? ,,,,,,,,,,,,,,,,,,,,,,,,,,,,,,,,,
,,,,,,,,,824,001,BCA,2022-01-12_09h28.17.839,workingMemoryTest,2020.2.10,Win32,60,,,,,,,,,,,,,,,,,,,,,,,,,,,,,,,,,,,,,,,,,,,,,,,,,,,,,,,,,,,,,,,,,,,,,,,,,,4,4,TRUE,-0.016666597,-0.337962975,1,0,0,0,0,0,0,1,8,,,,,,,,,,,,,,,,,,,,,,,,,,,,,,,,,,,,,,,,,
,,,,,,,,,824,001,BCA,2022-01-12_09h28.17.839,workingMemoryTest,2020.2.10,Win32,60,,,,,,,,,,,,,,,,,,,,,,,,,,,,,,,,,,,,,,,,,,,,,,,,,,,,,,,,,,,,,,,,,,,,,,,,,,4,4,TRUE,-0.024074061,-0.344444514,1,0,0,0,1,1,1,1,8,,,,,,,,,,,,,,,,,,,,,,,,,,,,,,,,,,,,,,,,,
,,,,,,,,,824,001,BCA,2022-01-12_09h28.17.839,workingMemoryTest,2020.2.10,Win32,60,,,,,,,,,,,,,,,,,,,,,,,,,,,,,,,,,,,,,,,,,,,,,,,,,,,,,,,,,,,,,,,,,,,,,,,,,,4,4,TRUE,-0.022222209,-0.375000013,1,0,0,0,2,2,2,1,8,,,,,,,,,,,,,,,,,,,,,,,,,,,,,,,,,,,,,,,,,
,,,,,,,,,824,001,BCA,2022-01-12_09h28.17.839,workingMemoryTest,2020.2.10,Win32,60,,,,,,,,,,,,,,,,,,,,,,,,,,,,,,,,,,,,,,,,,,,,,,,,,,,,,,,,,,,,,,,,,,,,,,,,,,,,,,,,,,,,,,,,,0,6,6,6,1,blockEight.xlsx,Ready for the next set? ,,,,,,,,,,,,,,,,,,,,,,,,,,,,,,,,,
,,,,,,,,,824,001,BCA,2022-01-12_09h28.17.839,workingMemoryTest,2020.2.10,Win32,60,,,,,,,,,,,,,,,,,,,,,,,,,,,,,,,,,,,,,,,,,,,,,,,,,,,,,,,,,,,,,,,,,,,,,,,,,,5,5,TRUE,-0.069444432,-0.351851865,1,0,0,0,0,0,0,1,9,,,,,,,,,,,,,,,,,,,,,,,,,,,,,,,,,,,,,,,,,
,,,,,,,,,824,001,BCA,2022-01-12_09h28.17.839,workingMemoryTest,2020.2.10,Win32,60,,,,,,,,,,,,,,,,,,,,,,,,,,,,,,,,,,,,,,,,,,,,,,,,,,,,,,,,,,,,,,,,,,,,,,,,,,5,5,TRUE,-0.011111098,-0.337962975,1,0,0,0,1,1,1,1,9,,,,,,,,,,,,,,,,,,,,,,,,,,,,,,,,,,,,,,,,,
,,,,,,,,,824,001,BCA,2022-01-12_09h28.17.839,workingMemoryTest,2020.2.10,Win32,60,,,,,,,,,,,,,,,,,,,,,,,,,,,,,,,,,,,,,,,,,,,,,,,,,,,,,,,,,,,,,,,,,,,,,,,,,,5,5,TRUE,-0.005555542,-0.375000013,1,0,0,0,2,2,2,1,9,,,,,,,,,,,,,,,,,,,,,,,,,,,,,,,,,,,,,,,,,
,,,,,,,,,824,001,BCA,2022-01-12_09h28.17.839,workingMemoryTest,2020.2.10,Win32,60,,,,,,,,,,,,,,,,,,,,,,,,,,,,,,,,,,,,,,,,,,,,,,,,,,,,,,,,,,,,,,,,,,,,,,,,,,,,,,,,,,,,,,,,,0,7,7,7,1,blockNine.xlsx,Ready for the next set? ,,,,,,,,,,,,,,,,,,,,,,,,,,,,,,,,,
,,,,,,,,,824,001,BCA,2022-01-12_09h28.17.839,workingMemoryTest,2020.2.10,Win32,60,,,,,,,,,,,,,,,,,,,,,,,,,,,,,,,,,,,,,,,,,,,,,,,,,,,,,,,,,,,,,,,,,,,,,,,,,,5,5,FALSE,-0.029629617,-0.333333346,1,0,0,0,0,0,0,1,10,,,,,,,,,,,,,,,,,,,,,,,,,,,,,,,,,,,,,,,,,
,,,,,,,,,824,001,BCA,2022-01-12_09h28.17.839,workingMemoryTest,2020.2.10,Win32,60,,,,,,,,,,,,,,,,,,,,,,,,,,,,,,,,,,,,,,,,,,,,,,,,,,,,,,,,,,,,,,,,,,,,,,,,,,5,5,FALSE,-0.00833332,-0.339814884,1,0,0,0,1,1,1,1,10,,,,,,,,,,,,,,,,,,,,,,,,,,,,,,,,,,,,,,,,,
,,,,,,,,,824,001,BCA,2022-01-12_09h28.17.839,workingMemoryTest,2020.2.10,Win32,60,,,,,,,,,,,,,,,,,,,,,,,,,,,,,,,,,,,,,,,,,,,,,,,,,,,,,,,,,,,,,,,,,,,,,,,,,,,,,,,,,,,,,,,,,,,,,,,,0,0,0,0,1,,,,,,,,,,,,,,,,,,,,,,,,,,,,
,,,,,,,,,824,001,BCA,2022-01-12_09h28.17.839,workingMemoryTest,2020.2.10,Win32,60,,,,,,,,,,,,,,,,,,,,,,,,,,,,,,,,,,,,,,,,,,,,,,,,,,,,,,0,1,1,1,1,0,0,1,,,,,,,,,,,,,,,,,,,,,,,,,,,,,,,,,,,,,,,,,,,,,,,,,,,,,,,,,,,,,,,,,,,
,,,,,,,,,824,001,BCA,2022-01-12_09h28.17.839,workingMemoryTest,2020.2.10,Win32,60,,,,,,,,,,,,,,,,,,,,,,,,,,,,,,,,,,,,,,,,,,,,,,,,,,,,,,,,,,,,,,,,,,,,,,,,,,,,,,,,,,,,,,,,,,,,,,,,,,,,,7,1.415,1,0,0,0,0,1,1 x 7 =,NA,practiceQ,7,,,,,,,,,,,,,,,,
,,,,,,,,,824,001,BCA,2022-01-12_09h28.17.839,workingMemoryTest,2020.2.10,Win32,60,,,,,,,,,,,,,,,,,,,,,,,,,,,,,,,,,,,,,,,,,,,,,,,,,,,,,,,,,,,,,,,,,,,,,,,,,,,,,,,,,,,,,,,,,,,,,,,,,,,,,50,2.3799,1,0,1,1,1,1,5 x 10 =,NA,practiceQ,50,,,,,,,,,,,,,,,,
,,,,,,,,,824,001,BCA,2022-01-12_09h28.17.839,workingMemoryTest,2020.2.10,Win32,60,,,,,,,,,,,,,,,,,,,,,,,,,,,,,,,,,,,,,,,,,,,,,,,,,,,,,,,,,,,,,,,,,,,,,,,,,,,,,,,,,,,,,,,,,,,,,,,,,,,,,33,1.5152,1,0,2,2,2,1,3 x 11 =,NA,practiceQ,33,,,,,,,,,,,,,,,,
,,,,,,,,,824,001,BCA,2022-01-12_09h28.17.839,workingMemoryTest,2020.2.10,Win32,60,,,,,,,,,,,,,,,,,,,,,,,,,,,,,,,,,,,,,,,,,,,,,,,,,,,,,,,,,,,,,,,,,,,,,,,,,,,,,,,,,,,,,,,,,,,,,,,,,,,,,45,3.6361,1,,,,,,5 x 9 =,smallFirst,largeProd,45,0,0,0,21,1,,,,,,,,,,,
,,,,,,,,,824,001,BCA,2022-01-12_09h28.17.839,workingMemoryTest,2020.2.10,Win32,60,,,,,,,,,,,,,,,,,,,,,,,,,,,,,,,,,,,,,,,,,,,,,,,,,,,,,,,,,,,,,,,,,,,,,,,,,,,,,,,,,,,,,,,,,,,,,,,,,,,,,35,4.3413,1,,,,,,5 x 7 =,smallFirst,largeProd,35,0,1,1,25,1,,,,,,,,,,,
,,,,,,,,,824,001,BCA,2022-01-12_09h28.17.839,workingMemoryTest,2020.2.10,Win32,60,,,,,,,,,,,,,,,,,,,,,,,,,,,,,,,,,,,,,,,,,,,,,,,,,,,,,,,,,,,,,,,,,,,,,,,,,,,,,,,,,,,,,,,,,,,,,,,,,,,,,48,16.9992,0,,,,,,8 x 7 =,largeFirst,largeProd,56,0,2,2,10,1,,,,,,,,,,,
,,,,,,,,,824,001,BCA,2022-01-12_09h28.17.839,workingMemoryTest,2020.2.10,Win32,60,,,,,,,,,,,,,,,,,,,,,,,,,,,,,,,,,,,,,,,,,,,,,,,,,,,,,,,,,,,,,,,,,,,,,,,,,,,,,,,,,,,,,,,,,,,,,,,,,,,,,21,1.8025,1,,,,,,7 x 3 =,largeFirst,smallProd,21,0,3,3,3,1,,,,,,,,,,,
,,,,,,,,,824,001,BCA,2022-01-12_09h28.17.839,workingMemoryTest,2020.2.10,Win32,60,,,,,,,,,,,,,,,,,,,,,,,,,,,,,,,,,,,,,,,,,,,,,,,,,,,,,,,,,,,,,,,,,,,,,,,,,,,,,,,,,,,,,,,,,,,,,,,,,,,,,20,1.5916,1,,,,,,5 x 4 =,largeFirst,smallProd,20,0,4,4,5,1,,,,,,,,,,,
,,,,,,,,,824,001,BCA,2022-01-12_09h28.17.839,workingMemoryTest,2020.2.10,Win32,60,,,,,,,,,,,,,,,,,,,,,,,,,,,,,,,,,,,,,,,,,,,,,,,,,,,,,,,,,,,,,,,,,,,,,,,,,,,,,,,,,,,,,,,,,,,,,,,,,,,,,12,1.4927,1,,,,,,6 x 2 =,largeFirst,smallProd,12,0,5,5,2,1,,,,,,,,,,,
,,,,,,,,,824,001,BCA,2022-01-12_09h28.17.839,workingMemoryTest,2020.2.10,Win32,60,,,,,,,,,,,,,,,,,,,,,,,,,,,,,,,,,,,,,,,,,,,,,,,,,,,,,,,,,,,,,,,,,,,,,,,,,,,,,,,,,,,,,,,,,,,,,,,,,,,,,15,1.4679,1,,,,,,5 x 3 =,largeFirst,smallProd,15,0,6,6,1,1,,,,,,,,,,,
,,,,,,,,,824,001,BCA,2022-01-12_09h28.17.839,workingMemoryTest,2020.2.10,Win32,60,,,,,,,,,,,,,,,,,,,,,,,,,,,,,,,,,,,,,,,,,,,,,,,,,,,,,,,,,,,,,,,,,,,,,,,,,,,,,,,,,,,,,,,,,,,,,,,,,,,,,2,1.9597,0,,,,,,3 x 9 =,smallFirst,largeProd,27,0,7,7,24,1,,,,,,,,,,,
,,,,,,,,,824,001,BCA,2022-01-12_09h28.17.839,workingMemoryTest,2020.2.10,Win32,60,,,,,,,,,,,,,,,,,,,,,,,,,,,,,,,,,,,,,,,,,,,,,,,,,,,,,,,,,,,,,,,,,,,,,,,,,,,,,,,,,,,,,,,,,,,,,,,,,,,,,,14.6046,0,,,,,,7 x 4 =,largeFirst,largeProd,28,0,8,8,7,1,,,,,,,,,,,
,,,,,,,,,824,001,BCA,2022-01-12_09h28.17.839,workingMemoryTest,2020.2.10,Win32,60,,,,,,,,,,,,,,,,,,,,,,,,,,,,,,,,,,,,,,,,,,,,,,,,,,,,,,,,,,,,,,,,,,,,,,,,,,,,,,,,,,,,,,,,,,,,,,,,,,,,,6,3.035,1,,,,,,2 x 3 =,smallFirst,smallProd,6,0,9,9,14,1,,,,,,,,,,,
,,,,,,,,,824,001,BCA,2022-01-12_09h28.17.839,workingMemoryTest,2020.2.10,Win32,60,,,,,,,,,,,,,,,,,,,,,,,,,,,,,,,,,,,,,,,,,,,,,,,,,,,,,,,,,,,,,,,,,,,,,,,,,,,,,,,,,,,,,,,,,,,,,,,,,,,,,10,1.3299,1,,,,,,2 x 5 =,smallFirst,smallProd,10,0,10,10,16,1,,,,,,,,,,,
,,,,,,,,,824,001,BCA,2022-01-12_09h28.17.839,workingMemoryTest,2020.2.10,Win32,60,,,,,,,,,,,,,,,,,,,,,,,,,,,,,,,,,,,,,,,,,,,,,,,,,,,,,,,,,,,,,,,,,,,,,,,,,,,,,,,,,,,,,,,,,,,,,,,,,,,,,18,2.8351,1,,,,,,3 x 6 =,smallFirst,smallProd,18,0,11,11,17,1,,,,,,,,,,,
,,,,,,,,,824,001,BCA,2022-01-12_09h28.17.839,workingMemoryTest,2020.2.10,Win32,60,,,,,,,,,,,,,,,,,,,,,,,,,,,,,,,,,,,,,,,,,,,,,,,,,,,,,,,,,,,,,,,,,,,,,,,,,,,,,,,,,,,,,,,,,,,,,,,,,,,,,18,2.6228,1,,,,,,9 x 2 =,largeFirst,smallProd,18,0,12,12,6,1,,,,,,,,,,,
,,,,,,,,,824,001,BCA,2022-01-12_09h28.17.839,workingMemoryTest,2020.2.10,Win32,60,,,,,,,,,,,,,,,,,,,,,,,,,,,,,,,,,,,,,,,,,,,,,,,,,,,,,,,,,,,,,,,,,,,,,,,,,,,,,,,,,,,,,,,,,,,,,,,,,,,,,14,1.7652,1,,,,,,2 x 7 =,smallFirst,smallProd,14,0,13,13,18,1,,,,,,,,,,,
,,,,,,,,,824,001,BCA,2022-01-12_09h28.17.839,workingMemoryTest,2020.2.10,Win32,60,,,,,,,,,,,,,,,,,,,,,,,,,,,,,,,,,,,,,,,,,,,,,,,,,,,,,,,,,,,,,,,,,,,,,,,,,,,,,,,,,,,,,,,,,,,,,,,,,,,,,30,1.7613,1,,,,,,5 x 6 =,smallFirst,largeProd,30,0,14,14,27,1,,,,,,,,,,,
,,,,,,,,,824,001,BCA,2022-01-12_09h28.17.839,workingMemoryTest,2020.2.10,Win32,60,,,,,,,,,,,,,,,,,,,,,,,,,,,,,,,,,,,,,,,,,,,,,,,,,,,,,,,,,,,,,,,,,,,,,,,,,,,,,,,,,,,,,,,,,,,,,,,,,,,,,16,9.9218,1,,,,,,2 x 8 =,smallFirst,smallProd,16,0,15,15,19,1,,,,,,,,,,,
,,,,,,,,,824,001,BCA,2022-01-12_09h28.17.839,workingMemoryTest,2020.2.10,Win32,60,,,,,,,,,,,,,,,,,,,,,,,,,,,,,,,,,,,,,,,,,,,,,,,,,,,,,,,,,,,,,,,,,,,,,,,,,,,,,,,,,,,,,,,,,,,,,,,,,,,,,32,3.1746,1,,,,,,4 x 8 =,smallFirst,largeProd,32,0,16,16,22,1,,,,,,,,,,,
,,,,,,,,,824,001,BCA,2022-01-12_09h28.17.839,workingMemoryTest,2020.2.10,Win32,60,,,,,,,,,,,,,,,,,,,,,,,,,,,,,,,,,,,,,,,,,,,,,,,,,,,,,,,,,,,,,,,,,,,,,,,,,,,,,,,,,,,,,,,,,,,,,,,,,,,,,40,5.2361,0,,,,,,8 x 6 =,largeFirst,largeProd,48,0,17,17,13,1,,,,,,,,,,,
,,,,,,,,,824,001,BCA,2022-01-12_09h28.17.839,workingMemoryTest,2020.2.10,Win32,60,,,,,,,,,,,,,,,,,,,,,,,,,,,,,,,,,,,,,,,,,,,,,,,,,,,,,,,,,,,,,,,,,,,,,,,,,,,,,,,,,,,,,,,,,,,,,,,,,,,,,63,10.6457,1,,,,,,7 x 9 =,smallFirst,largeProd,63,0,18,18,26,1,,,,,,,,,,,
,,,,,,,,,824,001,BCA,2022-01-12_09h28.17.839,workingMemoryTest,2020.2.10,Win32,60,,,,,,,,,,,,,,,,,,,,,,,,,,,,,,,,,,,,,,,,,,,,,,,,,,,,,,,,,,,,,,,,,,,,,,,,,,,,,,,,,,,,,,,,,,,,,,,,,,,,,56,2.5741,0,,,,,,8 x 8 =,tie,largeProd,64,0,19,19,29,1,,,,,,,,,,,
,,,,,,,,,824,001,BCA,2022-01-12_09h28.17.839,workingMemoryTest,2020.2.10,Win32,60,,,,,,,,,,,,,,,,,,,,,,,,,,,,,,,,,,,,,,,,,,,,,,,,,,,,,,,,,,,,,,,,,,,,,,,,,,,,,,,,,,,,,,,,,,,,,,,,,,,,,8,2.492,1,,,,,,4 x 2 =,largeFirst,smallProd,8,0,20,20,0,1,,,,,,,,,,,
,,,,,,,,,824,001,BCA,2022-01-12_09h28.17.839,workingMemoryTest,2020.2.10,Win32,60,,,,,,,,,,,,,,,,,,,,,,,,,,,,,,,,,,,,,,,,,,,,,,,,,,,,,,,,,,,,,,,,,,,,,,,,,,,,,,,,,,,,,,,,,,,,,,,,,,,,,27,3.5448,0,,,,,,9 x 4 =,largeFirst,largeProd,36,0,21,21,8,1,,,,,,,,,,,
,,,,,,,,,824,001,BCA,2022-01-12_09h28.17.839,workingMemoryTest,2020.2.10,Win32,60,,,,,,,,,,,,,,,,,,,,,,,,,,,,,,,,,,,,,,,,,,,,,,,,,,,,,,,,,,,,,,,,,,,,,,,,,,,,,,,,,,,,,,,,,,,,,,,,,,,,,64,9.8519,0,,,,,,9 x 8 =,largeFirst,largeProd,72,0,22,22,12,1,,,,,,,,,,,
,,,,,,,,,824,001,BCA,2022-01-12_09h28.17.839,workingMemoryTest,2020.2.10,Win32,60,,,,,,,,,,,,,,,,,,,,,,,,,,,,,,,,,,,,,,,,,,,,,,,,,,,,,,,,,,,,,,,,,,,,,,,,,,,,,,,,,,,,,,,,,,,,,,,,,,,,,36,15.2964,0,,,,,,9 x 6 =,largeFirst,largeProd,54,0,23,23,9,1,,,,,,,,,,,
,,,,,,,,,824,001,BCA,2022-01-12_09h28.17.839,workingMemoryTest,2020.2.10,Win32,60,,,,,,,,,,,,,,,,,,,,,,,,,,,,,,,,,,,,,,,,,,,,,,,,,,,,,,,,,,,,,,,,,,,,,,,,,,,,,,,,,,,,,,,,,,,,,,,,,,,,,24,2.395,1,,,,,,8 x 3 =,largeFirst,smallProd,24,0,24,24,4,1,,,,,,,,,,,
,,,,,,,,,824,001,BCA,2022-01-12_09h28.17.839,workingMemoryTest,2020.2.10,Win32,60,,,,,,,,,,,,,,,,,,,,,,,,,,,,,,,,,,,,,,,,,,,,,,,,,,,,,,,,,,,,,,,,,,,,,,,,,,,,,,,,,,,,,,,,,,,,,,,,,,,,,16,2.8005,1,,,,,,4 x 4 =,tie,smallProd,16,0,25,25,28,1,,,,,,,,,,,
,,,,,,,,,824,001,BCA,2022-01-12_09h28.17.839,workingMemoryTest,2020.2.10,Win32,60,,,,,,,,,,,,,,,,,,,,,,,,,,,,,,,,,,,,,,,,,,,,,,,,,,,,,,,,,,,,,,,,,,,,,,,,,,,,,,,,,,,,,,,,,,,,,,,,,,,,,40,2.4171,1,,,,,,8 x 5 =,largeFirst,largeProd,40,0,26,26,11,1,,,,,,,,,,,
,,,,,,,,,824,001,BCA,2022-01-12_09h28.17.839,workingMemoryTest,2020.2.10,Win32,60,,,,,,,,,,,,,,,,,,,,,,,,,,,,,,,,,,,,,,,,,,,,,,,,,,,,,,,,,,,,,,,,,,,,,,,,,,,,,,,,,,,,,,,,,,,,,,,,,,,,,12,4.0628,1,,,,,,3 x 4 =,smallFirst,smallProd,12,0,27,27,15,1,,,,,,,,,,,
,,,,,,,,,824,001,BCA,2022-01-12_09h28.17.839,workingMemoryTest,2020.2.10,Win32,60,,,,,,,,,,,,,,,,,,,,,,,,,,,,,,,,,,,,,,,,,,,,,,,,,,,,,,,,,,,,,,,,,,,,,,,,,,,,,,,,,,,,,,,,,,,,,,,,,,,,,42,14.9653,1,,,,,,6 x 7 =,smallFirst,largeProd,42,0,28,28,23,1,,,,,,,,,,,
,,,,,,,,,824,001,BCA,2022-01-12_09h28.17.839,workingMemoryTest,2020.2.10,Win32,60,,,,,,,,,,,,,,,,,,,,,,,,,,,,,,,,,,,,,,,,,,,,,,,,,,,,,,,,,,,,,,,,,,,,,,,,,,,,,,,,,,,,,,,,,,,,,,,,,,,,,24,1.6376,1,,,,,,4 x 6 =,smallFirst,smallProd,24,0,29,29,20,1,,,,,,,,,,,
,,,,,,,,,824,001,BCA,2022-01-12_09h28.17.839,workingMemoryTest,2020.2.10,Win32,60,,,,,,,,,,,,,,,,,,,,,,,,,,,,,,,,,,,,,,,,,,,,,,,,,,,,,,,,,,,,,,,,,,,,,,,,,,,,,,,,,,,,,,,,,,,,,,,,,,,,,,,,,,,,,,,,,,,,,,0,0,0,1,1,multiplTwo.xlsx,,,,,
,,,,,,,,,824,001,BCA,2022-01-12_09h28.17.839,workingMemoryTest,2020.2.10,Win32,60,,,,,,,,,,,,,,,,,,,,,,,,,,,,,,,,,,,,,,,,,,,,,,,,,,,,,,,,,,,,,,,,,,,,,,,,,,,,,,,,,,,,,,,,,,,,,,,,,,,,,40,1.9622,1,,,,,,5 x 8 =,smallFirst,largeProd,40,0,0,0,27,1,,,,,,,,,,,
,,,,,,,,,824,001,BCA,2022-01-12_09h28.17.839,workingMemoryTest,2020.2.10,Win32,60,,,,,,,,,,,,,,,,,,,,,,,,,,,,,,,,,,,,,,,,,,,,,,,,,,,,,,,,,,,,,,,,,,,,,,,,,,,,,,,,,,,,,,,,,,,,,,,,,,,,,15,1.698,1,,,,,,3 x 5 =,smallFirst,smallProd,15,0,1,1,19,1,,,,,,,,,,,
,,,,,,,,,824,001,BCA,2022-01-12_09h28.17.839,workingMemoryTest,2020.2.10,Win32,60,,,,,,,,,,,,,,,,,,,,,,,,,,,,,,,,,,,,,,,,,,,,,,,,,,,,,,,,,,,,,,,,,,,,,,,,,,,,,,,,,,,,,,,,,,,,,,,,,,,,,24,2.1136,1,,,,,,3 x 8 =,smallFirst,smallProd,24,0,2,2,15,1,,,,,,,,,,,
,,,,,,,,,824,001,BCA,2022-01-12_09h28.17.839,workingMemoryTest,2020.2.10,Win32,60,,,,,,,,,,,,,,,,,,,,,,,,,,,,,,,,,,,,,,,,,,,,,,,,,,,,,,,,,,,,,,,,,,,,,,,,,,,,,,,,,,,,,,,,,,,,,,,,,,,,,12,2.0188,1,,,,,,2 x 6 =,smallFirst,smallProd,12,0,3,3,20,1,,,,,,,,,,,
,,,,,,,,,824,001,BCA,2022-01-12_09h28.17.839,workingMemoryTest,2020.2.10,Win32,60,,,,,,,,,,,,,,,,,,,,,,,,,,,,,,,,,,,,,,,,,,,,,,,,,,,,,,,,,,,,,,,,,,,,,,,,,,,,,,,,,,,,,,,,,,,,,,,,,,,,,9,1.3204,1,,,,,,3 x 3 =,tie,smallProd,9,0,4,4,28,1,,,,,,,,,,,
,,,,,,,,,824,001,BCA,2022-01-12_09h28.17.839,workingMemoryTest,2020.2.10,Win32,60,,,,,,,,,,,,,,,,,,,,,,,,,,,,,,,,,,,,,,,,,,,,,,,,,,,,,,,,,,,,,,,,,,,,,,,,,,,,,,,,,,,,,,,,,,,,,,,,,,,,,21,1.7255,1,,,,,,3 x 7 =,smallFirst,smallProd,21,0,5,5,14,1,,,,,,,,,,,
,,,,,,,,,824,001,BCA,2022-01-12_09h28.17.839,workingMemoryTest,2020.2.10,Win32,60,,,,,,,,,,,,,,,,,,,,,,,,,,,,,,,,,,,,,,,,,,,,,,,,,,,,,,,,,,,,,,,,,,,,,,,,,,,,,,,,,,,,,,,,,,,,,,,,,,,,,35,1.9152,1,,,,,,7 x 5 =,largeFirst,largeProd,35,0,6,6,11,1,,,,,,,,,,,
,,,,,,,,,824,001,BCA,2022-01-12_09h28.17.839,workingMemoryTest,2020.2.10,Win32,60,,,,,,,,,,,,,,,,,,,,,,,,,,,,,,,,,,,,,,,,,,,,,,,,,,,,,,,,,,,,,,,,,,,,,,,,,,,,,,,,,,,,,,,,,,,,,,,,,,,,,45,1.6499,1,,,,,,9 x 5 =,largeFirst,largeProd,45,0,7,7,9,1,,,,,,,,,,,
,,,,,,,,,824,001,BCA,2022-01-12_09h28.17.839,workingMemoryTest,2020.2.10,Win32,60,,,,,,,,,,,,,,,,,,,,,,,,,,,,,,,,,,,,,,,,,,,,,,,,,,,,,,,,,,,,,,,,,,,,,,,,,,,,,,,,,,,,,,,,,,,,,,,,,,,,,64,3.4495,0,,,,,,8 x 9 =,smallFirst,largeProd,72,0,8,8,24,1,,,,,,,,,,,
,,,,,,,,,824,001,BCA,2022-01-12_09h28.17.839,workingMemoryTest,2020.2.10,Win32,60,,,,,,,,,,,,,,,,,,,,,,,,,,,,,,,,,,,,,,,,,,,,,,,,,,,,,,,,,,,,,,,,,,,,,,,,,,,,,,,,,,,,,,,,,,,,,,,,,,,,,56,17.7862,1,,,,,,7 x 8 =,smallFirst,largeProd,56,0,9,9,23,1,,,,,,,,,,,
,,,,,,,,,824,001,BCA,2022-01-12_09h28.17.839,workingMemoryTest,2020.2.10,Win32,60,,,,,,,,,,,,,,,,,,,,,,,,,,,,,,,,,,,,,,,,,,,,,,,,,,,,,,,,,,,,,,,,,,,,,,,,,,,,,,,,,,,,,,,,,,,,,,,,,,,,,42,6.399,1,,,,,,7 x 6 =,largeFirst,largeProd,42,0,10,10,10,1,,,,,,,,,,,
,,,,,,,,,824,001,BCA,2022-01-12_09h28.17.839,workingMemoryTest,2020.2.10,Win32,60,,,,,,,,,,,,,,,,,,,,,,,,,,,,,,,,,,,,,,,,,,,,,,,,,,,,,,,,,,,,,,,,,,,,,,,,,,,,,,,,,,,,,,,,,,,,,,,,,,,,,14,1.426,1,,,,,,7 x 2 =,largeFirst,smallProd,14,0,11,11,4,1,,,,,,,,,,,
,,,,,,,,,824,001,BCA,2022-01-12_09h28.17.839,workingMemoryTest,2020.2.10,Win32,60,,,,,,,,,,,,,,,,,,,,,,,,,,,,,,,,,,,,,,,,,,,,,,,,,,,,,,,,,,,,,,,,,,,,,,,,,,,,,,,,,,,,,,,,,,,,,,,,,,,,,52,8.0538,0,,,,,,6 x 9 =,smallFirst,largeProd,54,0,12,12,22,1,,,,,,,,,,,
,,,,,,,,,824,001,BCA,2022-01-12_09h28.17.839,workingMemoryTest,2020.2.10,Win32,60,,,,,,,,,,,,,,,,,,,,,,,,,,,,,,,,,,,,,,,,,,,,,,,,,,,,,,,,,,,,,,,,,,,,,,,,,,,,,,,,,,,,,,,,,,,,,,,,,,,,,30,2.3109,1,,,,,,6 x 5 =,largeFirst,largeProd,30,0,13,13,13,1,,,,,,,,,,,
,,,,,,,,,824,001,BCA,2022-01-12_09h28.17.839,workingMemoryTest,2020.2.10,Win32,60,,,,,,,,,,,,,,,,,,,,,,,,,,,,,,,,,,,,,,,,,,,,,,,,,,,,,,,,,,,,,,,,,,,,,,,,,,,,,,,,,,,,,,,,,,,,,,,,,,,,,18,2.2925,1,,,,,,6 x 3 =,largeFirst,smallProd,18,0,14,14,3,1,,,,,,,,,,,
,,,,,,,,,824,001,BCA,2022-01-12_09h28.17.839,workingMemoryTest,2020.2.10,Win32,60,,,,,,,,,,,,,,,,,,,,,,,,,,,,,,,,,,,,,,,,,,,,,,,,,,,,,,,,,,,,,,,,,,,,,,,,,,,,,,,,,,,,,,,,,,,,,,,,,,,,,16,1.692,1,,,,,,8 x 2 =,largeFirst,smallProd,16,0,15,15,5,1,,,,,,,,,,,
,,,,,,,,,824,001,BCA,2022-01-12_09h28.17.839,workingMemoryTest,2020.2.10,Win32,60,,,,,,,,,,,,,,,,,,,,,,,,,,,,,,,,,,,,,,,,,,,,,,,,,,,,,,,,,,,,,,,,,,,,,,,,,,,,,,,,,,,,,,,,,,,,,,,,,,,,,20,1.5462,1,,,,,,4 x 5 =,smallFirst,smallProd,20,0,16,16,16,1,,,,,,,,,,,
,,,,,,,,,824,001,BCA,2022-01-12_09h28.17.839,workingMemoryTest,2020.2.10,Win32,60,,,,,,,,,,,,,,,,,,,,,,,,,,,,,,,,,,,,,,,,,,,,,,,,,,,,,,,,,,,,,,,,,,,,,,,,,,,,,,,,,,,,,,,,,,,,,,,,,,,,,48,14.3561,1,,,,,,6 x 8 =,smallFirst,largeProd,48,0,17,17,21,1,,,,,,,,,,,
,,,,,,,,,824,001,BCA,2022-01-12_09h28.17.839,workingMemoryTest,2020.2.10,Win32,60,,,,,,,,,,,,,,,,,,,,,,,,,,,,,,,,,,,,,,,,,,,,,,,,,,,,,,,,,,,,,,,,,,,,,,,,,,,,,,,,,,,,,,,,,,,,,,,,,,,,,8,2.4835,1,,,,,,2 x 4 =,smallFirst,smallProd,8,0,18,18,17,1,,,,,,,,,,,
,,,,,,,,,824,001,BCA,2022-01-12_09h28.17.839,workingMemoryTest,2020.2.10,Win32,60,,,,,,,,,,,,,,,,,,,,,,,,,,,,,,,,,,,,,,,,,,,,,,,,,,,,,,,,,,,,,,,,,,,,,,,,,,,,,,,,,,,,,,,,,,,,,,,,,,,,,32,1.9093,1,,,,,,8 x 4 =,largeFirst,largeProd,32,0,19,19,8,1,,,,,,,,,,,
,,,,,,,,,824,001,BCA,2022-01-12_09h28.17.839,workingMemoryTest,2020.2.10,Win32,60,,,,,,,,,,,,,,,,,,,,,,,,,,,,,,,,,,,,,,,,,,,,,,,,,,,,,,,,,,,,,,,,,,,,,,,,,,,,,,,,,,,,,,,,,,,,,,,,,,,,,27,2.4782,1,,,,,,9 x 3 =,largeFirst,largeProd,27,0,20,20,7,1,,,,,,,,,,,
,,,,,,,,,824,001,BCA,2022-01-12_09h28.17.839,workingMemoryTest,2020.2.10,Win32,60,,,,,,,,,,,,,,,,,,,,,,,,,,,,,,,,,,,,,,,,,,,,,,,,,,,,,,,,,,,,,,,,,,,,,,,,,,,,,,,,,,,,,,,,,,,,,,,,,,,,,63,4.8082,1,,,,,,9 x 7 =,largeFirst,largeProd,63,0,21,21,12,1,,,,,,,,,,,
,,,,,,,,,824,001,BCA,2022-01-12_09h28.17.839,workingMemoryTest,2020.2.10,Win32,60,,,,,,,,,,,,,,,,,,,,,,,,,,,,,,,,,,,,,,,,,,,,,,,,,,,,,,,,,,,,,,,,,,,,,,,,,,,,,,,,,,,,,,,,,,,,,,,,,,,,,28,3.3248,1,,,,,,4 x 7 =,smallFirst,largeProd,28,0,22,22,25,1,,,,,,,,,,,
,,,,,,,,,824,001,BCA,2022-01-12_09h28.17.839,workingMemoryTest,2020.2.10,Win32,60,,,,,,,,,,,,,,,,,,,,,,,,,,,,,,,,,,,,,,,,,,,,,,,,,,,,,,,,,,,,,,,,,,,,,,,,,,,,,,,,,,,,,,,,,,,,,,,,,,,,,24,1.4057,1,,,,,,6 x 4 =,largeFirst,smallProd,24,0,23,23,6,1,,,,,,,,,,,
,,,,,,,,,824,001,BCA,2022-01-12_09h28.17.839,workingMemoryTest,2020.2.10,Win32,60,,,,,,,,,,,,,,,,,,,,,,,,,,,,,,,,,,,,,,,,,,,,,,,,,,,,,,,,,,,,,,,,,,,,,,,,,,,,,,,,,,,,,,,,,,,,,,,,,,,,,18,1.6177,1,,,,,,2 x 9 =,smallFirst,smallProd,18,0,24,24,18,1,,,,,,,,,,,
,,,,,,,,,824,001,BCA,2022-01-12_09h28.17.839,workingMemoryTest,2020.2.10,Win32,60,,,,,,,,,,,,,,,,,,,,,,,,,,,,,,,,,,,,,,,,,,,,,,,,,,,,,,,,,,,,,,,,,,,,,,,,,,,,,,,,,,,,,,,,,,,,,,,,,,,,,10,1.3869,1,,,,,,5 x 2 =,largeFirst,smallProd,10,0,25,25,2,1,,,,,,,,,,,
,,,,,,,,,824,001,BCA,2022-01-12_09h28.17.839,workingMemoryTest,2020.2.10,Win32,60,,,,,,,,,,,,,,,,,,,,,,,,,,,,,,,,,,,,,,,,,,,,,,,,,,,,,,,,,,,,,,,,,,,,,,,,,,,,,,,,,,,,,,,,,,,,,,,,,,,,,36,9.83,1,,,,,,4 x 9 =,smallFirst,largeProd,36,0,26,26,26,1,,,,,,,,,,,
,,,,,,,,,824,001,BCA,2022-01-12_09h28.17.839,workingMemoryTest,2020.2.10,Win32,60,,,,,,,,,,,,,,,,,,,,,,,,,,,,,,,,,,,,,,,,,,,,,,,,,,,,,,,,,,,,,,,,,,,,,,,,,,,,,,,,,,,,,,,,,,,,,,,,,,,,,48,2.8701,0,,,,,,7 x 7 =,tie,largeProd,49,0,27,27,29,1,,,,,,,,,,,
,,,,,,,,,824,001,BCA,2022-01-12_09h28.17.839,workingMemoryTest,2020.2.10,Win32,60,,,,,,,,,,,,,,,,,,,,,,,,,,,,,,,,,,,,,,,,,,,,,,,,,,,,,,,,,,,,,,,,,,,,,,,,,,,,,,,,,,,,,,,,,,,,,,,,,,,,,6,1.9314,1,,,,,,3 x 2 =,largeFirst,smallProd,6,0,28,28,0,1,,,,,,,,,,,
,,,,,,,,,824,001,BCA,2022-01-12_09h28.17.839,workingMemoryTest,2020.2.10,Win32,60,,,,,,,,,,,,,,,,,,,,,,,,,,,,,,,,,,,,,,,,,,,,,,,,,,,,,,,,,,,,,,,,,,,,,,,,,,,,,,,,,,,,,,,,,,,,,,,,,,,,,12,1.313,1,,,,,,4 x 3 =,largeFirst,smallProd,12,0,29,29,1,1,,,,,,,,,,,
,,,,,,,,,824,001,BCA,2022-01-12_09h28.17.839,workingMemoryTest,2020.2.10,Win32,60,,,,,,,,,,,,,,,,,,,,,,,,,,,,,,,,,,,,,,,,,,,,,,,,,,,,,,,,,,,,,,,,,,,,,,,,,,,,,,,,,,,,,,,,,,,,,,,,,,,,,,,,,,,,,,,,,,,,,,0,1,1,0,1,multiplOne.xlsx,,,,,
,,,,,,,,,824,001,BCA,2022-01-12_09h28.17.839,workingMemoryTest,2020.2.10,Win32,60,,,,,,,,,,,,,,,,,,,,,,,,,,,,,,,,,,,,,,,,,,,,,,,,,,,,,,,,,,,,,,,,,,,,,,,,,,,,,,,,,,,,,,,,,,,,,,,,,,,,,,,,,,,,,,,,,,,,,,,,,,,,0,0,0,0,1
,,,,,,,,,824,001,BCA,2022-01-12_09h28.17.839,workingMemoryTest,2020.2.10,Win32,60,,,,,,,,,,,,,,,,,,,,,,,,,,,,,,,,,,,,,,,,,,,,,,,,,,,,,,0,2,2,2,1,1,0,0,,,,,,,,,,,,,,,,,,,,,,,,,,,,,,,,,,,,,,,,,,,,,,,,,,,,,,,,,,,,,,,,,,,
