typedNumber,typingRT,answerCorr,typingLoopPract.thisRepN,typingLoopPract.thisTrialN,typingLoopPract.thisN,typingLoopPract.thisIndex,typingLoopPract.ran,productNo,participant,session,group,date,expName,psychopyVersion,OS,frameRate,typingRTrial.thisRepN,typingRTrial.thisTrialN,typingRTrial.thisN,typingRTrial.thisIndex,typingRTrial.ran,typedAnswer,multiplyRT,multiplyCorr,multiLoopPrac.thisRepN,multiLoopPrac.thisTrialN,multiLoopPrac.thisN,multiLoopPrac.thisIndex,multiLoopPrac.ran,problem,OperandType,productType,Answer,multiRTrial.thisRepN,multiRTrial.thisTrialN,multiRTrial.thisN,multiRTrial.thisIndex,multiRTrial.ran,trials_2.thisRepN,trials_2.thisTrialN,trials_2.thisN,trials_2.thisIndex,trials_2.ran,fileee,TaskA.thisRepN,TaskA.thisTrialN,TaskA.thisN,TaskA.thisIndex,TaskA.ran,TaskOrderCond.thisRepN,TaskOrderCond.thisTrialN,TaskOrderCond.thisN,TaskOrderCond.thisIndex,TaskOrderCond.ran,nRepsTask1,nRepsTask2,nRepsTask3,typedAudioPrac,audioPracRT,audioPrCorr,audioLoopPrac.thisRepN,audioLoopPrac.thisTrialN,audioLoopPrac.thisN,audioLoopPrac.thisIndex,audioLoopPrac.ran,audiospan,digits_audio,soundsJS,EgnerDSresponse,EgnerDSrt,EgnerDSscore,audioRTrial.thisRepN,audioRTrial.thisTrialN,audioRTrial.thisN,audioRTrial.thisIndex,audioRTrial.ran,digitSpan,audioCondLoop.thisRepN,audioCondLoop.thisTrialN,audioCondLoop.thisN,audioCondLoop.thisIndex,audioCondLoop.ran,Condition,WAISDSresponse,WAISDSrt,WAISDSscore,audioRTrialwais.thisRepN,audioRTrialwais.thisTrialN,audioRTrialwais.thisN,audioRTrialwais.thisIndex,audioRTrialwais.ran,digitSpanWAIS,digits_audioWAIS,soundsWAIS,audioCondLoopwais.thisRepN,audioCondLoopwais.thisTrialN,audioCondLoopwais.thisN,audioCondLoopwais.thisIndex,audioCondLoopwais.ran,ConditionWAIS,TaskB.thisRepN,TaskB.thisTrialN,TaskB.thisN,TaskB.thisIndex,TaskB.ran,correct,respMousePrac.x,respMousePrac.y,respMousePrac.leftButton,respMousePrac.midButton,respMousePrac.rightButton,vptLoopPrac.thisRepN,vptLoopPrac.thisTrialN,vptLoopPrac.thisN,vptLoopPrac.thisIndex,vptLoopPrac.ran,tiles,rows,cols,vptCorrect,respMouse.x,respMouse.y,respMouse.leftButton,respMouse.midButton,respMouse.rightButton,trials.thisRepN,trials.thisTrialN,trials.thisN,trials.thisIndex,trials.ran,noOfBlocks,blockDuration,conditionLoop.thisRepN,conditionLoop.thisTrialN,conditionLoop.thisN,conditionLoop.thisIndex,conditionLoop.ran,sheet,readyMsg,TaskC.thisRepN,TaskC.thisTrialN,TaskC.thisN,TaskC.thisIndex,TaskC.ran
41,2.1159,1,0,0,0,1,1,41,828,001,ABC,2022-01-12_09h06.57.841,workingMemoryTest,2020.2.10,Win32,60,,,,,,,,,,,,,,,,,,,,,,,,,,,,,,,,,,,,,,,,,,,,,,,,,,,,,,,,,,,,,,,,,,,,,,,,,,,,,,,,,,,,,,,,,,,,,,,,,,,,,,,,,,,,,,,,,,,,,,,,,,,,,,,,
39,1.4329,1,0,1,1,0,1,39,828,001,ABC,2022-01-12_09h06.57.841,workingMemoryTest,2020.2.10,Win32,60,,,,,,,,,,,,,,,,,,,,,,,,,,,,,,,,,,,,,,,,,,,,,,,,,,,,,,,,,,,,,,,,,,,,,,,,,,,,,,,,,,,,,,,,,,,,,,,,,,,,,,,,,,,,,,,,,,,,,,,,,,,,,,,,
59,1.8828,1,0,2,2,2,1,59,828,001,ABC,2022-01-12_09h06.57.841,workingMemoryTest,2020.2.10,Win32,60,,,,,,,,,,,,,,,,,,,,,,,,,,,,,,,,,,,,,,,,,,,,,,,,,,,,,,,,,,,,,,,,,,,,,,,,,,,,,,,,,,,,,,,,,,,,,,,,,,,,,,,,,,,,,,,,,,,,,,,,,,,,,,,,
42,1.6496,1,,,,,,42,828,001,ABC,2022-01-12_09h06.57.841,workingMemoryTest,2020.2.10,Win32,60,0,0,0,19,1,,,,,,,,,,,,,,,,,,,,,,,,,,,,,,,,,,,,,,,,,,,,,,,,,,,,,,,,,,,,,,,,,,,,,,,,,,,,,,,,,,,,,,,,,,,,,,,,,,,,,,,,,,,,,,,,,,,,,,,,,,,
8,1.0494,1,,,,,,8,828,001,ABC,2022-01-12_09h06.57.841,workingMemoryTest,2020.2.10,Win32,60,0,1,1,2,1,,,,,,,,,,,,,,,,,,,,,,,,,,,,,,,,,,,,,,,,,,,,,,,,,,,,,,,,,,,,,,,,,,,,,,,,,,,,,,,,,,,,,,,,,,,,,,,,,,,,,,,,,,,,,,,,,,,,,,,,,,,
48,1.3163,1,,,,,,48,828,001,ABC,2022-01-12_09h06.57.841,workingMemoryTest,2020.2.10,Win32,60,0,2,2,21,1,,,,,,,,,,,,,,,,,,,,,,,,,,,,,,,,,,,,,,,,,,,,,,,,,,,,,,,,,,,,,,,,,,,,,,,,,,,,,,,,,,,,,,,,,,,,,,,,,,,,,,,,,,,,,,,,,,,,,,,,,,,
36,1.2995,1,,,,,,36,828,001,ABC,2022-01-12_09h06.57.841,workingMemoryTest,2020.2.10,Win32,60,0,3,3,17,1,,,,,,,,,,,,,,,,,,,,,,,,,,,,,,,,,,,,,,,,,,,,,,,,,,,,,,,,,,,,,,,,,,,,,,,,,,,,,,,,,,,,,,,,,,,,,,,,,,,,,,,,,,,,,,,,,,,,,,,,,,,
64,1.2662,1,,,,,,64,828,001,ABC,2022-01-12_09h06.57.841,workingMemoryTest,2020.2.10,Win32,60,0,4,4,26,1,,,,,,,,,,,,,,,,,,,,,,,,,,,,,,,,,,,,,,,,,,,,,,,,,,,,,,,,,,,,,,,,,,,,,,,,,,,,,,,,,,,,,,,,,,,,,,,,,,,,,,,,,,,,,,,,,,,,,,,,,,,
30,1.4823,1,,,,,,30,828,001,ABC,2022-01-12_09h06.57.841,workingMemoryTest,2020.2.10,Win32,60,0,5,5,14,1,,,,,,,,,,,,,,,,,,,,,,,,,,,,,,,,,,,,,,,,,,,,,,,,,,,,,,,,,,,,,,,,,,,,,,,,,,,,,,,,,,,,,,,,,,,,,,,,,,,,,,,,,,,,,,,,,,,,,,,,,,,
14,1.2159,1,,,,,,14,828,001,ABC,2022-01-12_09h06.57.841,workingMemoryTest,2020.2.10,Win32,60,0,6,6,5,1,,,,,,,,,,,,,,,,,,,,,,,,,,,,,,,,,,,,,,,,,,,,,,,,,,,,,,,,,,,,,,,,,,,,,,,,,,,,,,,,,,,,,,,,,,,,,,,,,,,,,,,,,,,,,,,,,,,,,,,,,,,
12,1.0158,1,,,,,,12,828,001,ABC,2022-01-12_09h06.57.841,workingMemoryTest,2020.2.10,Win32,60,0,7,7,4,1,,,,,,,,,,,,,,,,,,,,,,,,,,,,,,,,,,,,,,,,,,,,,,,,,,,,,,,,,,,,,,,,,,,,,,,,,,,,,,,,,,,,,,,,,,,,,,,,,,,,,,,,,,,,,,,,,,,,,,,,,,,
56,1.1491,1,,,,,,56,828,001,ABC,2022-01-12_09h06.57.841,workingMemoryTest,2020.2.10,Win32,60,0,8,8,24,1,,,,,,,,,,,,,,,,,,,,,,,,,,,,,,,,,,,,,,,,,,,,,,,,,,,,,,,,,,,,,,,,,,,,,,,,,,,,,,,,,,,,,,,,,,,,,,,,,,,,,,,,,,,,,,,,,,,,,,,,,,,
27,1.516,1,,,,,,27,828,001,ABC,2022-01-12_09h06.57.841,workingMemoryTest,2020.2.10,Win32,60,0,9,9,12,1,,,,,,,,,,,,,,,,,,,,,,,,,,,,,,,,,,,,,,,,,,,,,,,,,,,,,,,,,,,,,,,,,,,,,,,,,,,,,,,,,,,,,,,,,,,,,,,,,,,,,,,,,,,,,,,,,,,,,,,,,,,
18,1.7162,1,,,,,,18,828,001,ABC,2022-01-12_09h06.57.841,workingMemoryTest,2020.2.10,Win32,60,0,10,10,8,1,,,,,,,,,,,,,,,,,,,,,,,,,,,,,,,,,,,,,,,,,,,,,,,,,,,,,,,,,,,,,,,,,,,,,,,,,,,,,,,,,,,,,,,,,,,,,,,,,,,,,,,,,,,,,,,,,,,,,,,,,,,
24,1.3497,1,,,,,,24,828,001,ABC,2022-01-12_09h06.57.841,workingMemoryTest,2020.2.10,Win32,60,0,11,11,11,1,,,,,,,,,,,,,,,,,,,,,,,,,,,,,,,,,,,,,,,,,,,,,,,,,,,,,,,,,,,,,,,,,,,,,,,,,,,,,,,,,,,,,,,,,,,,,,,,,,,,,,,,,,,,,,,,,,,,,,,,,,,
49,1.5662,1,,,,,,49,828,001,ABC,2022-01-12_09h06.57.841,workingMemoryTest,2020.2.10,Win32,60,0,12,12,22,1,,,,,,,,,,,,,,,,,,,,,,,,,,,,,,,,,,,,,,,,,,,,,,,,,,,,,,,,,,,,,,,,,,,,,,,,,,,,,,,,,,,,,,,,,,,,,,,,,,,,,,,,,,,,,,,,,,,,,,,,,,,
15,1.9997,1,,,,,,15,828,001,ABC,2022-01-12_09h06.57.841,workingMemoryTest,2020.2.10,Win32,60,0,13,13,6,1,,,,,,,,,,,,,,,,,,,,,,,,,,,,,,,,,,,,,,,,,,,,,,,,,,,,,,,,,,,,,,,,,,,,,,,,,,,,,,,,,,,,,,,,,,,,,,,,,,,,,,,,,,,,,,,,,,,,,,,,,,,
72,1.8321,1,,,,,,72,828,001,ABC,2022-01-12_09h06.57.841,workingMemoryTest,2020.2.10,Win32,60,0,14,14,27,1,,,,,,,,,,,,,,,,,,,,,,,,,,,,,,,,,,,,,,,,,,,,,,,,,,,,,,,,,,,,,,,,,,,,,,,,,,,,,,,,,,,,,,,,,,,,,,,,,,,,,,,,,,,,,,,,,,,,,,,,,,,
63,1.6152,1,,,,,,63,828,001,ABC,2022-01-12_09h06.57.841,workingMemoryTest,2020.2.10,Win32,60,0,15,15,25,1,,,,,,,,,,,,,,,,,,,,,,,,,,,,,,,,,,,,,,,,,,,,,,,,,,,,,,,,,,,,,,,,,,,,,,,,,,,,,,,,,,,,,,,,,,,,,,,,,,,,,,,,,,,,,,,,,,,,,,,,,,,
10,1.2162,1,,,,,,10,828,001,ABC,2022-01-12_09h06.57.841,workingMemoryTest,2020.2.10,Win32,60,0,16,16,3,1,,,,,,,,,,,,,,,,,,,,,,,,,,,,,,,,,,,,,,,,,,,,,,,,,,,,,,,,,,,,,,,,,,,,,,,,,,,,,,,,,,,,,,,,,,,,,,,,,,,,,,,,,,,,,,,,,,,,,,,,,,,
32,1.2663,1,,,,,,32,828,001,ABC,2022-01-12_09h06.57.841,workingMemoryTest,2020.2.10,Win32,60,0,17,17,15,1,,,,,,,,,,,,,,,,,,,,,,,,,,,,,,,,,,,,,,,,,,,,,,,,,,,,,,,,,,,,,,,,,,,,,,,,,,,,,,,,,,,,,,,,,,,,,,,,,,,,,,,,,,,,,,,,,,,,,,,,,,,
35,1.3165,1,,,,,,35,828,001,ABC,2022-01-12_09h06.57.841,workingMemoryTest,2020.2.10,Win32,60,0,18,18,16,1,,,,,,,,,,,,,,,,,,,,,,,,,,,,,,,,,,,,,,,,,,,,,,,,,,,,,,,,,,,,,,,,,,,,,,,,,,,,,,,,,,,,,,,,,,,,,,,,,,,,,,,,,,,,,,,,,,,,,,,,,,,
6,1.1331,1,,,,,,6,828,001,ABC,2022-01-12_09h06.57.841,workingMemoryTest,2020.2.10,Win32,60,0,19,19,0,1,,,,,,,,,,,,,,,,,,,,,,,,,,,,,,,,,,,,,,,,,,,,,,,,,,,,,,,,,,,,,,,,,,,,,,,,,,,,,,,,,,,,,,,,,,,,,,,,,,,,,,,,,,,,,,,,,,,,,,,,,,,
16,1.1831,1,,,,,,16,828,001,ABC,2022-01-12_09h06.57.841,workingMemoryTest,2020.2.10,Win32,60,0,20,20,7,1,,,,,,,,,,,,,,,,,,,,,,,,,,,,,,,,,,,,,,,,,,,,,,,,,,,,,,,,,,,,,,,,,,,,,,,,,,,,,,,,,,,,,,,,,,,,,,,,,,,,,,,,,,,,,,,,,,,,,,,,,,,
9,1.1832,1,,,,,,9,828,001,ABC,2022-01-12_09h06.57.841,workingMemoryTest,2020.2.10,Win32,60,0,21,21,1,1,,,,,,,,,,,,,,,,,,,,,,,,,,,,,,,,,,,,,,,,,,,,,,,,,,,,,,,,,,,,,,,,,,,,,,,,,,,,,,,,,,,,,,,,,,,,,,,,,,,,,,,,,,,,,,,,,,,,,,,,,,,
20,1.4162,1,,,,,,20,828,001,ABC,2022-01-12_09h06.57.841,workingMemoryTest,2020.2.10,Win32,60,0,22,22,9,1,,,,,,,,,,,,,,,,,,,,,,,,,,,,,,,,,,,,,,,,,,,,,,,,,,,,,,,,,,,,,,,,,,,,,,,,,,,,,,,,,,,,,,,,,,,,,,,,,,,,,,,,,,,,,,,,,,,,,,,,,,,
4,1.3162,0,,,,,,40,828,001,ABC,2022-01-12_09h06.57.841,workingMemoryTest,2020.2.10,Win32,60,0,23,23,18,1,,,,,,,,,,,,,,,,,,,,,,,,,,,,,,,,,,,,,,,,,,,,,,,,,,,,,,,,,,,,,,,,,,,,,,,,,,,,,,,,,,,,,,,,,,,,,,,,,,,,,,,,,,,,,,,,,,,,,,,,,,,
28,2.0163,1,,,,,,28,828,001,ABC,2022-01-12_09h06.57.841,workingMemoryTest,2020.2.10,Win32,60,0,24,24,13,1,,,,,,,,,,,,,,,,,,,,,,,,,,,,,,,,,,,,,,,,,,,,,,,,,,,,,,,,,,,,,,,,,,,,,,,,,,,,,,,,,,,,,,,,,,,,,,,,,,,,,,,,,,,,,,,,,,,,,,,,,,,
45,1.1501,1,,,,,,45,828,001,ABC,2022-01-12_09h06.57.841,workingMemoryTest,2020.2.10,Win32,60,0,25,25,20,1,,,,,,,,,,,,,,,,,,,,,,,,,,,,,,,,,,,,,,,,,,,,,,,,,,,,,,,,,,,,,,,,,,,,,,,,,,,,,,,,,,,,,,,,,,,,,,,,,,,,,,,,,,,,,,,,,,,,,,,,,,,
54,1.3662,1,,,,,,54,828,001,ABC,2022-01-12_09h06.57.841,workingMemoryTest,2020.2.10,Win32,60,0,26,26,23,1,,,,,,,,,,,,,,,,,,,,,,,,,,,,,,,,,,,,,,,,,,,,,,,,,,,,,,,,,,,,,,,,,,,,,,,,,,,,,,,,,,,,,,,,,,,,,,,,,,,,,,,,,,,,,,,,,,,,,,,,,,,
21,1.3995,1,,,,,,21,828,001,ABC,2022-01-12_09h06.57.841,workingMemoryTest,2020.2.10,Win32,60,0,27,27,10,1,,,,,,,,,,,,,,,,,,,,,,,,,,,,,,,,,,,,,,,,,,,,,,,,,,,,,,,,,,,,,,,,,,,,,,,,,,,,,,,,,,,,,,,,,,,,,,,,,,,,,,,,,,,,,,,,,,,,,,,,,,,
,,,,,,,,,828,001,ABC,2022-01-12_09h06.57.841,workingMemoryTest,2020.2.10,Win32,60,,,,,,7,1.4156,1,0,0,0,0,1,1 x 7 =,NA,practiceQ,7,,,,,,,,,,,,,,,,,,,,,,,,,,,,,,,,,,,,,,,,,,,,,,,,,,,,,,,,,,,,,,,,,,,,,,,,,,,,,,,,,,,,,,,,,,,,,,,,,,,,,,,,,,,,,,,
,,,,,,,,,828,001,ABC,2022-01-12_09h06.57.841,workingMemoryTest,2020.2.10,Win32,60,,,,,,33,1.4325,1,0,1,1,2,1,3 x 11 =,NA,practiceQ,33,,,,,,,,,,,,,,,,,,,,,,,,,,,,,,,,,,,,,,,,,,,,,,,,,,,,,,,,,,,,,,,,,,,,,,,,,,,,,,,,,,,,,,,,,,,,,,,,,,,,,,,,,,,,,,,
,,,,,,,,,828,001,ABC,2022-01-12_09h06.57.841,workingMemoryTest,2020.2.10,Win32,60,,,,,,50,1.7158,1,0,2,2,1,1,5 x 10 =,NA,practiceQ,50,,,,,,,,,,,,,,,,,,,,,,,,,,,,,,,,,,,,,,,,,,,,,,,,,,,,,,,,,,,,,,,,,,,,,,,,,,,,,,,,,,,,,,,,,,,,,,,,,,,,,,,,,,,,,,,
,,,,,,,,,828,001,ABC,2022-01-12_09h06.57.841,workingMemoryTest,2020.2.10,Win32,60,,,,,,56,1.3438,1,,,,,,7 x 8 =,smallFirst,largeProd,56,0,0,0,23,1,,,,,,,,,,,,,,,,,,,,,,,,,,,,,,,,,,,,,,,,,,,,,,,,,,,,,,,,,,,,,,,,,,,,,,,,,,,,,,,,,,,,,,,,,,,,,,,,,,,,,,,,,,
,,,,,,,,,828,001,ABC,2022-01-12_09h06.57.841,workingMemoryTest,2020.2.10,Win32,60,,,,,,10,1.3264,1,,,,,,5 x 2 =,largeFirst,smallProd,10,0,1,1,2,1,,,,,,,,,,,,,,,,,,,,,,,,,,,,,,,,,,,,,,,,,,,,,,,,,,,,,,,,,,,,,,,,,,,,,,,,,,,,,,,,,,,,,,,,,,,,,,,,,,,,,,,,,,
,,,,,,,,,828,001,ABC,2022-01-12_09h06.57.841,workingMemoryTest,2020.2.10,Win32,60,,,,,,8,1.5381,1,,,,,,2 x 4 =,smallFirst,smallProd,8,0,2,2,17,1,,,,,,,,,,,,,,,,,,,,,,,,,,,,,,,,,,,,,,,,,,,,,,,,,,,,,,,,,,,,,,,,,,,,,,,,,,,,,,,,,,,,,,,,,,,,,,,,,,,,,,,,,,
,,,,,,,,,828,001,ABC,2022-01-12_09h06.57.841,workingMemoryTest,2020.2.10,Win32,60,,,,,,12,1.1658,1,,,,,,2 x 6 =,smallFirst,smallProd,12,0,3,3,20,1,,,,,,,,,,,,,,,,,,,,,,,,,,,,,,,,,,,,,,,,,,,,,,,,,,,,,,,,,,,,,,,,,,,,,,,,,,,,,,,,,,,,,,,,,,,,,,,,,,,,,,,,,,
,,,,,,,,,828,001,ABC,2022-01-12_09h06.57.841,workingMemoryTest,2020.2.10,Win32,60,,,,,,14,2.0883,1,,,,,,7 x 2 =,largeFirst,smallProd,14,0,4,4,4,1,,,,,,,,,,,,,,,,,,,,,,,,,,,,,,,,,,,,,,,,,,,,,,,,,,,,,,,,,,,,,,,,,,,,,,,,,,,,,,,,,,,,,,,,,,,,,,,,,,,,,,,,,,
,,,,,,,,,828,001,ABC,2022-01-12_09h06.57.841,workingMemoryTest,2020.2.10,Win32,60,,,,,,18,2.2376,1,,,,,,6 x 3 =,largeFirst,smallProd,18,0,5,5,3,1,,,,,,,,,,,,,,,,,,,,,,,,,,,,,,,,,,,,,,,,,,,,,,,,,,,,,,,,,,,,,,,,,,,,,,,,,,,,,,,,,,,,,,,,,,,,,,,,,,,,,,,,,,
,,,,,,,,,828,001,ABC,2022-01-12_09h06.57.841,workingMemoryTest,2020.2.10,Win32,60,,,,,,36,2.3822,1,,,,,,4 x 9 =,smallFirst,largeProd,36,0,6,6,26,1,,,,,,,,,,,,,,,,,,,,,,,,,,,,,,,,,,,,,,,,,,,,,,,,,,,,,,,,,,,,,,,,,,,,,,,,,,,,,,,,,,,,,,,,,,,,,,,,,,,,,,,,,,
,,,,,,,,,828,001,ABC,2022-01-12_09h06.57.841,workingMemoryTest,2020.2.10,Win32,60,,,,,,32,2.565,1,,,,,,8 x 4 =,largeFirst,largeProd,32,0,7,7,8,1,,,,,,,,,,,,,,,,,,,,,,,,,,,,,,,,,,,,,,,,,,,,,,,,,,,,,,,,,,,,,,,,,,,,,,,,,,,,,,,,,,,,,,,,,,,,,,,,,,,,,,,,,,
,,,,,,,,,828,001,ABC,2022-01-12_09h06.57.841,workingMemoryTest,2020.2.10,Win32,60,,,,,,45,1.3823,1,,,,,,9 x 5 =,largeFirst,largeProd,45,0,8,8,9,1,,,,,,,,,,,,,,,,,,,,,,,,,,,,,,,,,,,,,,,,,,,,,,,,,,,,,,,,,,,,,,,,,,,,,,,,,,,,,,,,,,,,,,,,,,,,,,,,,,,,,,,,,,
,,,,,,,,,828,001,ABC,2022-01-12_09h06.57.841,workingMemoryTest,2020.2.10,Win32,60,,,,,,28,1.7934,1,,,,,,4 x 7 =,smallFirst,largeProd,28,0,9,9,25,1,,,,,,,,,,,,,,,,,,,,,,,,,,,,,,,,,,,,,,,,,,,,,,,,,,,,,,,,,,,,,,,,,,,,,,,,,,,,,,,,,,,,,,,,,,,,,,,,,,,,,,,,,,
,,,,,,,,,828,001,ABC,2022-01-12_09h06.57.841,workingMemoryTest,2020.2.10,Win32,60,,,,,,24,1.9549,1,,,,,,3 x 8 =,smallFirst,smallProd,24,0,10,10,15,1,,,,,,,,,,,,,,,,,,,,,,,,,,,,,,,,,,,,,,,,,,,,,,,,,,,,,,,,,,,,,,,,,,,,,,,,,,,,,,,,,,,,,,,,,,,,,,,,,,,,,,,,,,
,,,,,,,,,828,001,ABC,2022-01-12_09h06.57.841,workingMemoryTest,2020.2.10,Win32,60,,,,,,49,1.7487,1,,,,,,7 x 7 =,tie,largeProd,49,0,11,11,29,1,,,,,,,,,,,,,,,,,,,,,,,,,,,,,,,,,,,,,,,,,,,,,,,,,,,,,,,,,,,,,,,,,,,,,,,,,,,,,,,,,,,,,,,,,,,,,,,,,,,,,,,,,,
,,,,,,,,,828,001,ABC,2022-01-12_09h06.57.841,workingMemoryTest,2020.2.10,Win32,60,,,,,,24,1.7211,1,,,,,,6 x 4 =,largeFirst,smallProd,24,0,12,12,6,1,,,,,,,,,,,,,,,,,,,,,,,,,,,,,,,,,,,,,,,,,,,,,,,,,,,,,,,,,,,,,,,,,,,,,,,,,,,,,,,,,,,,,,,,,,,,,,,,,,,,,,,,,,
,,,,,,,,,828,001,ABC,2022-01-12_09h06.57.841,workingMemoryTest,2020.2.10,Win32,60,,,,,,40,1.5987,1,,,,,,5 x 8 =,smallFirst,largeProd,40,0,13,13,27,1,,,,,,,,,,,,,,,,,,,,,,,,,,,,,,,,,,,,,,,,,,,,,,,,,,,,,,,,,,,,,,,,,,,,,,,,,,,,,,,,,,,,,,,,,,,,,,,,,,,,,,,,,,
,,,,,,,,,828,001,ABC,2022-01-12_09h06.57.841,workingMemoryTest,2020.2.10,Win32,60,,,,,,21,1.4312,1,,,,,,3 x 7 =,smallFirst,smallProd,21,0,14,14,14,1,,,,,,,,,,,,,,,,,,,,,,,,,,,,,,,,,,,,,,,,,,,,,,,,,,,,,,,,,,,,,,,,,,,,,,,,,,,,,,,,,,,,,,,,,,,,,,,,,,,,,,,,,,
,,,,,,,,,828,001,ABC,2022-01-12_09h06.57.841,workingMemoryTest,2020.2.10,Win32,60,,,,,,9,1.6491,1,,,,,,3 x 3 =,tie,smallProd,9,0,15,15,28,1,,,,,,,,,,,,,,,,,,,,,,,,,,,,,,,,,,,,,,,,,,,,,,,,,,,,,,,,,,,,,,,,,,,,,,,,,,,,,,,,,,,,,,,,,,,,,,,,,,,,,,,,,,
,,,,,,,,,828,001,ABC,2022-01-12_09h06.57.841,workingMemoryTest,2020.2.10,Win32,60,,,,,,16,1.4656,1,,,,,,8 x 2 =,largeFirst,smallProd,16,0,16,16,5,1,,,,,,,,,,,,,,,,,,,,,,,,,,,,,,,,,,,,,,,,,,,,,,,,,,,,,,,,,,,,,,,,,,,,,,,,,,,,,,,,,,,,,,,,,,,,,,,,,,,,,,,,,,
,,,,,,,,,828,001,ABC,2022-01-12_09h06.57.841,workingMemoryTest,2020.2.10,Win32,60,,,,,,35,1.4936,1,,,,,,7 x 5 =,largeFirst,largeProd,35,0,17,17,11,1,,,,,,,,,,,,,,,,,,,,,,,,,,,,,,,,,,,,,,,,,,,,,,,,,,,,,,,,,,,,,,,,,,,,,,,,,,,,,,,,,,,,,,,,,,,,,,,,,,,,,,,,,,
,,,,,,,,,828,001,ABC,2022-01-12_09h06.57.841,workingMemoryTest,2020.2.10,Win32,60,,,,,,5,2.7432,0,,,,,,6 x 9 =,smallFirst,largeProd,54,0,18,18,22,1,,,,,,,,,,,,,,,,,,,,,,,,,,,,,,,,,,,,,,,,,,,,,,,,,,,,,,,,,,,,,,,,,,,,,,,,,,,,,,,,,,,,,,,,,,,,,,,,,,,,,,,,,,
,,,,,,,,,828,001,ABC,2022-01-12_09h06.57.841,workingMemoryTest,2020.2.10,Win32,60,,,,,,20,1.616,1,,,,,,4 x 5 =,smallFirst,smallProd,20,0,19,19,16,1,,,,,,,,,,,,,,,,,,,,,,,,,,,,,,,,,,,,,,,,,,,,,,,,,,,,,,,,,,,,,,,,,,,,,,,,,,,,,,,,,,,,,,,,,,,,,,,,,,,,,,,,,,
,,,,,,,,,828,001,ABC,2022-01-12_09h06.57.841,workingMemoryTest,2020.2.10,Win32,60,,,,,,42,3.7047,1,,,,,,7 x 6 =,largeFirst,largeProd,42,0,20,20,10,1,,,,,,,,,,,,,,,,,,,,,,,,,,,,,,,,,,,,,,,,,,,,,,,,,,,,,,,,,,,,,,,,,,,,,,,,,,,,,,,,,,,,,,,,,,,,,,,,,,,,,,,,,,
,,,,,,,,,828,001,ABC,2022-01-12_09h06.57.841,workingMemoryTest,2020.2.10,Win32,60,,,,,,6,1.9158,1,,,,,,3 x 2 =,largeFirst,smallProd,6,0,21,21,0,1,,,,,,,,,,,,,,,,,,,,,,,,,,,,,,,,,,,,,,,,,,,,,,,,,,,,,,,,,,,,,,,,,,,,,,,,,,,,,,,,,,,,,,,,,,,,,,,,,,,,,,,,,,
,,,,,,,,,828,001,ABC,2022-01-12_09h06.57.841,workingMemoryTest,2020.2.10,Win32,60,,,,,,30,1.7047,1,,,,,,6 x 5 =,largeFirst,largeProd,30,0,22,22,13,1,,,,,,,,,,,,,,,,,,,,,,,,,,,,,,,,,,,,,,,,,,,,,,,,,,,,,,,,,,,,,,,,,,,,,,,,,,,,,,,,,,,,,,,,,,,,,,,,,,,,,,,,,,
,,,,,,,,,828,001,ABC,2022-01-12_09h06.57.841,workingMemoryTest,2020.2.10,Win32,60,,,,,,12,1.4488,1,,,,,,4 x 3 =,largeFirst,smallProd,12,0,23,23,1,1,,,,,,,,,,,,,,,,,,,,,,,,,,,,,,,,,,,,,,,,,,,,,,,,,,,,,,,,,,,,,,,,,,,,,,,,,,,,,,,,,,,,,,,,,,,,,,,,,,,,,,,,,,
,,,,,,,,,828,001,ABC,2022-01-12_09h06.57.841,workingMemoryTest,2020.2.10,Win32,60,,,,,,63,2.465,1,,,,,,9 x 7 =,largeFirst,largeProd,63,0,24,24,12,1,,,,,,,,,,,,,,,,,,,,,,,,,,,,,,,,,,,,,,,,,,,,,,,,,,,,,,,,,,,,,,,,,,,,,,,,,,,,,,,,,,,,,,,,,,,,,,,,,,,,,,,,,,
,,,,,,,,,828,001,ABC,2022-01-12_09h06.57.841,workingMemoryTest,2020.2.10,Win32,60,,,,,,42,3.165,0,,,,,,6 x 8 =,smallFirst,largeProd,48,0,25,25,21,1,,,,,,,,,,,,,,,,,,,,,,,,,,,,,,,,,,,,,,,,,,,,,,,,,,,,,,,,,,,,,,,,,,,,,,,,,,,,,,,,,,,,,,,,,,,,,,,,,,,,,,,,,,
,,,,,,,,,828,001,ABC,2022-01-12_09h06.57.841,workingMemoryTest,2020.2.10,Win32,60,,,,,,15,1.3325,1,,,,,,3 x 5 =,smallFirst,smallProd,15,0,26,26,19,1,,,,,,,,,,,,,,,,,,,,,,,,,,,,,,,,,,,,,,,,,,,,,,,,,,,,,,,,,,,,,,,,,,,,,,,,,,,,,,,,,,,,,,,,,,,,,,,,,,,,,,,,,,
,,,,,,,,,828,001,ABC,2022-01-12_09h06.57.841,workingMemoryTest,2020.2.10,Win32,60,,,,,,18,1.482,1,,,,,,2 x 9 =,smallFirst,smallProd,18,0,27,27,18,1,,,,,,,,,,,,,,,,,,,,,,,,,,,,,,,,,,,,,,,,,,,,,,,,,,,,,,,,,,,,,,,,,,,,,,,,,,,,,,,,,,,,,,,,,,,,,,,,,,,,,,,,,,
,,,,,,,,,828,001,ABC,2022-01-12_09h06.57.841,workingMemoryTest,2020.2.10,Win32,60,,,,,,72,2.7313,1,,,,,,8 x 9 =,smallFirst,largeProd,72,0,28,28,24,1,,,,,,,,,,,,,,,,,,,,,,,,,,,,,,,,,,,,,,,,,,,,,,,,,,,,,,,,,,,,,,,,,,,,,,,,,,,,,,,,,,,,,,,,,,,,,,,,,,,,,,,,,,
,,,,,,,,,828,001,ABC,2022-01-12_09h06.57.841,workingMemoryTest,2020.2.10,Win32,60,,,,,,27,1.6928,1,,,,,,9 x 3 =,largeFirst,largeProd,27,0,29,29,7,1,,,,,,,,,,,,,,,,,,,,,,,,,,,,,,,,,,,,,,,,,,,,,,,,,,,,,,,,,,,,,,,,,,,,,,,,,,,,,,,,,,,,,,,,,,,,,,,,,,,,,,,,,,
,,,,,,,,,828,001,ABC,2022-01-12_09h06.57.841,workingMemoryTest,2020.2.10,Win32,60,,,,,,,,,,,,,,,,,,,,,,,0,0,0,0,1,multiplOne.xlsx,,,,,,,,,,,,,,,,,,,,,,,,,,,,,,,,,,,,,,,,,,,,,,,,,,,,,,,,,,,,,,,,,,,,,,,,,,,,,,,,,,,,,,,,,,,,,,,,,,,,
,,,,,,,,,828,001,ABC,2022-01-12_09h06.57.841,workingMemoryTest,2020.2.10,Win32,60,,,,,,20,1.4824,1,,,,,,5 x 4 =,largeFirst,smallProd,20,0,0,0,5,1,,,,,,,,,,,,,,,,,,,,,,,,,,,,,,,,,,,,,,,,,,,,,,,,,,,,,,,,,,,,,,,,,,,,,,,,,,,,,,,,,,,,,,,,,,,,,,,,,,,,,,,,,,
,,,,,,,,,828,001,ABC,2022-01-12_09h06.57.841,workingMemoryTest,2020.2.10,Win32,60,,,,,,18,1.4158,1,,,,,,3 x 6 =,smallFirst,smallProd,18,0,1,1,17,1,,,,,,,,,,,,,,,,,,,,,,,,,,,,,,,,,,,,,,,,,,,,,,,,,,,,,,,,,,,,,,,,,,,,,,,,,,,,,,,,,,,,,,,,,,,,,,,,,,,,,,,,,,
,,,,,,,,,828,001,ABC,2022-01-12_09h06.57.841,workingMemoryTest,2020.2.10,Win32,60,,,,,,12,1.216,1,,,,,,6 x 2 =,largeFirst,smallProd,12,0,2,2,2,1,,,,,,,,,,,,,,,,,,,,,,,,,,,,,,,,,,,,,,,,,,,,,,,,,,,,,,,,,,,,,,,,,,,,,,,,,,,,,,,,,,,,,,,,,,,,,,,,,,,,,,,,,,
,,,,,,,,,828,001,ABC,2022-01-12_09h06.57.841,workingMemoryTest,2020.2.10,Win32,60,,,,,,10,1.2324,1,,,,,,2 x 5 =,smallFirst,smallProd,10,0,3,3,16,1,,,,,,,,,,,,,,,,,,,,,,,,,,,,,,,,,,,,,,,,,,,,,,,,,,,,,,,,,,,,,,,,,,,,,,,,,,,,,,,,,,,,,,,,,,,,,,,,,,,,,,,,,,
,,,,,,,,,828,001,ABC,2022-01-12_09h06.57.841,workingMemoryTest,2020.2.10,Win32,60,,,,,,35,1.8323,1,,,,,,5 x 7 =,smallFirst,largeProd,35,0,4,4,25,1,,,,,,,,,,,,,,,,,,,,,,,,,,,,,,,,,,,,,,,,,,,,,,,,,,,,,,,,,,,,,,,,,,,,,,,,,,,,,,,,,,,,,,,,,,,,,,,,,,,,,,,,,,
,,,,,,,,,828,001,ABC,2022-01-12_09h06.57.841,workingMemoryTest,2020.2.10,Win32,60,,,,,,32,3.8322,1,,,,,,4 x 8 =,smallFirst,largeProd,32,0,5,5,22,1,,,,,,,,,,,,,,,,,,,,,,,,,,,,,,,,,,,,,,,,,,,,,,,,,,,,,,,,,,,,,,,,,,,,,,,,,,,,,,,,,,,,,,,,,,,,,,,,,,,,,,,,,,
,,,,,,,,,828,001,ABC,2022-01-12_09h06.57.841,workingMemoryTest,2020.2.10,Win32,60,,,,,,54,1.4325,1,,,,,,9 x 6 =,largeFirst,largeProd,54,0,6,6,9,1,,,,,,,,,,,,,,,,,,,,,,,,,,,,,,,,,,,,,,,,,,,,,,,,,,,,,,,,,,,,,,,,,,,,,,,,,,,,,,,,,,,,,,,,,,,,,,,,,,,,,,,,,,
,,,,,,,,,828,001,ABC,2022-01-12_09h06.57.841,workingMemoryTest,2020.2.10,Win32,60,,,,,,27,1.8991,1,,,,,,3 x 9 =,smallFirst,largeProd,27,0,7,7,24,1,,,,,,,,,,,,,,,,,,,,,,,,,,,,,,,,,,,,,,,,,,,,,,,,,,,,,,,,,,,,,,,,,,,,,,,,,,,,,,,,,,,,,,,,,,,,,,,,,,,,,,,,,,
,,,,,,,,,828,001,ABC,2022-01-12_09h06.57.841,workingMemoryTest,2020.2.10,Win32,60,,,,,,30,1.5323,1,,,,,,5 x 6 =,smallFirst,largeProd,30,0,8,8,27,1,,,,,,,,,,,,,,,,,,,,,,,,,,,,,,,,,,,,,,,,,,,,,,,,,,,,,,,,,,,,,,,,,,,,,,,,,,,,,,,,,,,,,,,,,,,,,,,,,,,,,,,,,,
,,,,,,,,,828,001,ABC,2022-01-12_09h06.57.841,workingMemoryTest,2020.2.10,Win32,60,,,,,,24,1.8155,1,,,,,,8 x 3 =,largeFirst,smallProd,24,0,9,9,4,1,,,,,,,,,,,,,,,,,,,,,,,,,,,,,,,,,,,,,,,,,,,,,,,,,,,,,,,,,,,,,,,,,,,,,,,,,,,,,,,,,,,,,,,,,,,,,,,,,,,,,,,,,,
,,,,,,,,,828,001,ABC,2022-01-12_09h06.57.841,workingMemoryTest,2020.2.10,Win32,60,,,,,,42,1.7823,1,,,,,,6 x 7 =,smallFirst,largeProd,42,0,10,10,23,1,,,,,,,,,,,,,,,,,,,,,,,,,,,,,,,,,,,,,,,,,,,,,,,,,,,,,,,,,,,,,,,,,,,,,,,,,,,,,,,,,,,,,,,,,,,,,,,,,,,,,,,,,,
,,,,,,,,,828,001,ABC,2022-01-12_09h06.57.841,workingMemoryTest,2020.2.10,Win32,60,,,,,,8,1.4326,1,,,,,,4 x 2 =,largeFirst,smallProd,8,0,11,11,0,1,,,,,,,,,,,,,,,,,,,,,,,,,,,,,,,,,,,,,,,,,,,,,,,,,,,,,,,,,,,,,,,,,,,,,,,,,,,,,,,,,,,,,,,,,,,,,,,,,,,,,,,,,,
,,,,,,,,,828,001,ABC,2022-01-12_09h06.57.841,workingMemoryTest,2020.2.10,Win32,60,,,,,,48,5.4817,1,,,,,,8 x 6 =,largeFirst,largeProd,48,0,12,12,13,1,,,,,,,,,,,,,,,,,,,,,,,,,,,,,,,,,,,,,,,,,,,,,,,,,,,,,,,,,,,,,,,,,,,,,,,,,,,,,,,,,,,,,,,,,,,,,,,,,,,,,,,,,,
,,,,,,,,,828,001,ABC,2022-01-12_09h06.57.841,workingMemoryTest,2020.2.10,Win32,60,,,,,,45,1.4491,1,,,,,,5 x 9 =,smallFirst,largeProd,45,0,13,13,21,1,,,,,,,,,,,,,,,,,,,,,,,,,,,,,,,,,,,,,,,,,,,,,,,,,,,,,,,,,,,,,,,,,,,,,,,,,,,,,,,,,,,,,,,,,,,,,,,,,,,,,,,,,,
,,,,,,,,,828,001,ABC,2022-01-12_09h06.57.841,workingMemoryTest,2020.2.10,Win32,60,,,,,,28,1.5994,1,,,,,,7 x 4 =,largeFirst,largeProd,28,0,14,14,7,1,,,,,,,,,,,,,,,,,,,,,,,,,,,,,,,,,,,,,,,,,,,,,,,,,,,,,,,,,,,,,,,,,,,,,,,,,,,,,,,,,,,,,,,,,,,,,,,,,,,,,,,,,,
,,,,,,,,,828,001,ABC,2022-01-12_09h06.57.841,workingMemoryTest,2020.2.10,Win32,60,,,,,,64,2.3153,1,,,,,,8 x 8 =,tie,largeProd,64,0,15,15,29,1,,,,,,,,,,,,,,,,,,,,,,,,,,,,,,,,,,,,,,,,,,,,,,,,,,,,,,,,,,,,,,,,,,,,,,,,,,,,,,,,,,,,,,,,,,,,,,,,,,,,,,,,,,
,,,,,,,,,828,001,ABC,2022-01-12_09h06.57.841,workingMemoryTest,2020.2.10,Win32,60,,,,,,72,2.0658,1,,,,,,9 x 8 =,largeFirst,largeProd,72,0,16,16,12,1,,,,,,,,,,,,,,,,,,,,,,,,,,,,,,,,,,,,,,,,,,,,,,,,,,,,,,,,,,,,,,,,,,,,,,,,,,,,,,,,,,,,,,,,,,,,,,,,,,,,,,,,,,
,,,,,,,,,828,001,ABC,2022-01-12_09h06.57.841,workingMemoryTest,2020.2.10,Win32,60,,,,,,24,1.6491,1,,,,,,4 x 6 =,smallFirst,smallProd,24,0,17,17,20,1,,,,,,,,,,,,,,,,,,,,,,,,,,,,,,,,,,,,,,,,,,,,,,,,,,,,,,,,,,,,,,,,,,,,,,,,,,,,,,,,,,,,,,,,,,,,,,,,,,,,,,,,,,
,,,,,,,,,828,001,ABC,2022-01-12_09h06.57.841,workingMemoryTest,2020.2.10,Win32,60,,,,,,14,1.6325,1,,,,,,2 x 7 =,smallFirst,smallProd,14,0,18,18,18,1,,,,,,,,,,,,,,,,,,,,,,,,,,,,,,,,,,,,,,,,,,,,,,,,,,,,,,,,,,,,,,,,,,,,,,,,,,,,,,,,,,,,,,,,,,,,,,,,,,,,,,,,,,
,,,,,,,,,828,001,ABC,2022-01-12_09h06.57.841,workingMemoryTest,2020.2.10,Win32,60,,,,,,6,1.2326,1,,,,,,2 x 3 =,smallFirst,smallProd,6,0,19,19,14,1,,,,,,,,,,,,,,,,,,,,,,,,,,,,,,,,,,,,,,,,,,,,,,,,,,,,,,,,,,,,,,,,,,,,,,,,,,,,,,,,,,,,,,,,,,,,,,,,,,,,,,,,,,
,,,,,,,,,828,001,ABC,2022-01-12_09h06.57.841,workingMemoryTest,2020.2.10,Win32,60,,,,,,40,1.7327,1,,,,,,8 x 5 =,largeFirst,largeProd,40,0,20,20,11,1,,,,,,,,,,,,,,,,,,,,,,,,,,,,,,,,,,,,,,,,,,,,,,,,,,,,,,,,,,,,,,,,,,,,,,,,,,,,,,,,,,,,,,,,,,,,,,,,,,,,,,,,,,
,,,,,,,,,828,001,ABC,2022-01-12_09h06.57.841,workingMemoryTest,2020.2.10,Win32,60,,,,,,18,1.566,1,,,,,,9 x 2 =,largeFirst,smallProd,18,0,21,21,6,1,,,,,,,,,,,,,,,,,,,,,,,,,,,,,,,,,,,,,,,,,,,,,,,,,,,,,,,,,,,,,,,,,,,,,,,,,,,,,,,,,,,,,,,,,,,,,,,,,,,,,,,,,,
,,,,,,,,,828,001,ABC,2022-01-12_09h06.57.841,workingMemoryTest,2020.2.10,Win32,60,,,,,,21,1.5991,1,,,,,,7 x 3 =,largeFirst,smallProd,21,0,22,22,3,1,,,,,,,,,,,,,,,,,,,,,,,,,,,,,,,,,,,,,,,,,,,,,,,,,,,,,,,,,,,,,,,,,,,,,,,,,,,,,,,,,,,,,,,,,,,,,,,,,,,,,,,,,,
,,,,,,,,,828,001,ABC,2022-01-12_09h06.57.841,workingMemoryTest,2020.2.10,Win32,60,,,,,,15,2.0325,1,,,,,,5 x 3 =,largeFirst,smallProd,15,0,23,23,1,1,,,,,,,,,,,,,,,,,,,,,,,,,,,,,,,,,,,,,,,,,,,,,,,,,,,,,,,,,,,,,,,,,,,,,,,,,,,,,,,,,,,,,,,,,,,,,,,,,,,,,,,,,,
,,,,,,,,,828,001,ABC,2022-01-12_09h06.57.841,workingMemoryTest,2020.2.10,Win32,60,,,,,,36,3.2822,1,,,,,,9 x 4 =,largeFirst,largeProd,36,0,24,24,8,1,,,,,,,,,,,,,,,,,,,,,,,,,,,,,,,,,,,,,,,,,,,,,,,,,,,,,,,,,,,,,,,,,,,,,,,,,,,,,,,,,,,,,,,,,,,,,,,,,,,,,,,,,,
,,,,,,,,,828,001,ABC,2022-01-12_09h06.57.841,workingMemoryTest,2020.2.10,Win32,60,,,,,,16,1.3823,1,,,,,,4 x 4 =,tie,smallProd,16,0,25,25,28,1,,,,,,,,,,,,,,,,,,,,,,,,,,,,,,,,,,,,,,,,,,,,,,,,,,,,,,,,,,,,,,,,,,,,,,,,,,,,,,,,,,,,,,,,,,,,,,,,,,,,,,,,,,
,,,,,,,,,828,001,ABC,2022-01-12_09h06.57.841,workingMemoryTest,2020.2.10,Win32,60,,,,,,12,1.0992,1,,,,,,3 x 4 =,smallFirst,smallProd,12,0,26,26,15,1,,,,,,,,,,,,,,,,,,,,,,,,,,,,,,,,,,,,,,,,,,,,,,,,,,,,,,,,,,,,,,,,,,,,,,,,,,,,,,,,,,,,,,,,,,,,,,,,,,,,,,,,,,
,,,,,,,,,828,001,ABC,2022-01-12_09h06.57.841,workingMemoryTest,2020.2.10,Win32,60,,,,,,63,2.0657,1,,,,,,7 x 9 =,smallFirst,largeProd,63,0,27,27,26,1,,,,,,,,,,,,,,,,,,,,,,,,,,,,,,,,,,,,,,,,,,,,,,,,,,,,,,,,,,,,,,,,,,,,,,,,,,,,,,,,,,,,,,,,,,,,,,,,,,,,,,,,,,
,,,,,,,,,828,001,ABC,2022-01-12_09h06.57.841,workingMemoryTest,2020.2.10,Win32,60,,,,,,56,1.7487,1,,,,,,8 x 7 =,largeFirst,largeProd,56,0,28,28,10,1,,,,,,,,,,,,,,,,,,,,,,,,,,,,,,,,,,,,,,,,,,,,,,,,,,,,,,,,,,,,,,,,,,,,,,,,,,,,,,,,,,,,,,,,,,,,,,,,,,,,,,,,,,
,,,,,,,,,828,001,ABC,2022-01-12_09h06.57.841,workingMemoryTest,2020.2.10,Win32,60,,,,,,16,2.5156,1,,,,,,2 x 8 =,smallFirst,smallProd,16,0,29,29,19,1,,,,,,,,,,,,,,,,,,,,,,,,,,,,,,,,,,,,,,,,,,,,,,,,,,,,,,,,,,,,,,,,,,,,,,,,,,,,,,,,,,,,,,,,,,,,,,,,,,,,,,,,,,
,,,,,,,,,828,001,ABC,2022-01-12_09h06.57.841,workingMemoryTest,2020.2.10,Win32,60,,,,,,,,,,,,,,,,,,,,,,,0,1,1,1,1,multiplTwo.xlsx,,,,,,,,,,,,,,,,,,,,,,,,,,,,,,,,,,,,,,,,,,,,,,,,,,,,,,,,,,,,,,,,,,,,,,,,,,,,,,,,,,,,,,,,,,,,,,,,,,,,
,,,,,,,,,828,001,ABC,2022-01-12_09h06.57.841,workingMemoryTest,2020.2.10,Win32,60,,,,,,,,,,,,,,,,,,,,,,,,,,,,,0,0,0,0,1,,,,,,,,,,,,,,,,,,,,,,,,,,,,,,,,,,,,,,,,,,,,,,,,,,,,,,,,,,,,,,,,,,,,,,,,,,,,,,,,,,,,,,,,,,,,,,,
,,,,,,,,,828,001,ABC,2022-01-12_09h06.57.841,workingMemoryTest,2020.2.10,Win32,60,,,,,,,,,,,,,,,,,,,,,,,,,,,,,,,,,,0,0,0,0,1,1,0,0,,,,,,,,,,,,,,,,,,,,,,,,,,,,,,,,,,,,,,,,,,,,,,,,,,,,,,,,,,,,,,,,,,,,,,,,,,,,,,,,,,,,,,,
,,,,,,,,,828,001,ABC,2022-01-12_09h06.57.841,workingMemoryTest,2020.2.10,Win32,60,,,,,,,,,,,,,,,,,,,,,,,,,,,,,,,,,,,,,,,,,,123,2.1303,1,0,0,0,0,1,practice,123,Audio/123.mp3,,,,,,,,,,,,,,,,,,,,,,,,,,,,,,,,,,,,,,,,,,,,,,,,,,,,,,,,,,,,,,,,,,,,,,,,,,,,
,,,,,,,,,828,001,ABC,2022-01-12_09h06.57.841,workingMemoryTest,2020.2.10,Win32,60,,,,,,,,,,,,,,,,,,,,,,,,,,,,,,,,,,,,,,,,,,321,1.1662,1,0,1,1,1,1,practice,321,Audio/321.mp3,,,,,,,,,,,,,,,,,,,,,,,,,,,,,,,,,,,,,,,,,,,,,,,,,,,,,,,,,,,,,,,,,,,,,,,,,,,,
,,,,,,,,,828,001,ABC,2022-01-12_09h06.57.841,workingMemoryTest,2020.2.10,Win32,60,,,,,,,,,,,,,,,,,,,,,,,,,,,,,,,,,,,,,,,,,,911,2.2656,1,0,2,2,2,1,practice,911,Audio/911.mp3,,,,,,,,,,,,,,,,,,,,,,,,,,,,,,,,,,,,,,,,,,,,,,,,,,,,,,,,,,,,,,,,,,,,,,,,,,,,
,,,,,,,,,828,001,ABC,2022-01-12_09h06.57.841,workingMemoryTest,2020.2.10,Win32,60,,,,,,,,,,,,,,,,,,,,,,,,,,,,,,,,,,,,,,,,,,,,,,,,,,,46,Audio/46.mp3,46,1.8309,1,0,0,0,0,1,2,,,,,,,,,,,,,,,,,,,,,,,,,,,,,,,,,,,,,,,,,,,,,,,,,,,,,,,,,,,,,,,,,,,
,,,,,,,,,828,001,ABC,2022-01-12_09h06.57.841,workingMemoryTest,2020.2.10,Win32,60,,,,,,,,,,,,,,,,,,,,,,,,,,,,,,,,,,,,,,,,,,,,,,,,,,,,,,,,,,,,,,0,0,0,0,1,twoAudio.xlsx,,,,,,,,,,,,,,,,,,,,,,,,,,,,,,,,,,,,,,,,,,,,,,,,,,,,,,,,,,,,,
,,,,,,,,,828,001,ABC,2022-01-12_09h06.57.841,workingMemoryTest,2020.2.10,Win32,60,,,,,,,,,,,,,,,,,,,,,,,,,,,,,,,,,,,,,,,,,,,,,,,,,,,157,Audio/157.mp3,157,1.6317,1,0,0,0,0,1,3,,,,,,,,,,,,,,,,,,,,,,,,,,,,,,,,,,,,,,,,,,,,,,,,,,,,,,,,,,,,,,,,,,,
,,,,,,,,,828,001,ABC,2022-01-12_09h06.57.841,workingMemoryTest,2020.2.10,Win32,60,,,,,,,,,,,,,,,,,,,,,,,,,,,,,,,,,,,,,,,,,,,,,,,,,,,,,,,,,,,,,,0,1,1,1,1,threeAudio.xlsx,,,,,,,,,,,,,,,,,,,,,,,,,,,,,,,,,,,,,,,,,,,,,,,,,,,,,,,,,,,,,
,,,,,,,,,828,001,ABC,2022-01-12_09h06.57.841,workingMemoryTest,2020.2.10,Win32,60,,,,,,,,,,,,,,,,,,,,,,,,,,,,,,,,,,,,,,,,,,,,,,,,,,,6352,Audio/6352.mp3,6352,1.5615,1,0,0,0,0,1,4,,,,,,,,,,,,,,,,,,,,,,,,,,,,,,,,,,,,,,,,,,,,,,,,,,,,,,,,,,,,,,,,,,,
,,,,,,,,,828,001,ABC,2022-01-12_09h06.57.841,workingMemoryTest,2020.2.10,Win32,60,,,,,,,,,,,,,,,,,,,,,,,,,,,,,,,,,,,,,,,,,,,,,,,,,,,,,,,,,,,,,,0,2,2,2,1,fourAudio.xlsx,,,,,,,,,,,,,,,,,,,,,,,,,,,,,,,,,,,,,,,,,,,,,,,,,,,,,,,,,,,,,
,,,,,,,,,828,001,ABC,2022-01-12_09h06.57.841,workingMemoryTest,2020.2.10,Win32,60,,,,,,,,,,,,,,,,,,,,,,,,,,,,,,,,,,,,,,,,,,,,,,,,,,,59281,Audio/59281.mp3,59281,2.0148,1,0,0,0,0,1,5,,,,,,,,,,,,,,,,,,,,,,,,,,,,,,,,,,,,,,,,,,,,,,,,,,,,,,,,,,,,,,,,,,,
,,,,,,,,,828,001,ABC,2022-01-12_09h06.57.841,workingMemoryTest,2020.2.10,Win32,60,,,,,,,,,,,,,,,,,,,,,,,,,,,,,,,,,,,,,,,,,,,,,,,,,,,,,,,,,,,,,,0,3,3,3,1,fiveAudio.xlsx,,,,,,,,,,,,,,,,,,,,,,,,,,,,,,,,,,,,,,,,,,,,,,,,,,,,,,,,,,,,,
,,,,,,,,,828,001,ABC,2022-01-12_09h06.57.841,workingMemoryTest,2020.2.10,Win32,60,,,,,,,,,,,,,,,,,,,,,,,,,,,,,,,,,,,,,,,,,,,,,,,,,,,396172,Audio/396172.mp3,396172,3.1992,1,0,0,0,0,1,6,,,,,,,,,,,,,,,,,,,,,,,,,,,,,,,,,,,,,,,,,,,,,,,,,,,,,,,,,,,,,,,,,,,
,,,,,,,,,828,001,ABC,2022-01-12_09h06.57.841,workingMemoryTest,2020.2.10,Win32,60,,,,,,,,,,,,,,,,,,,,,,,,,,,,,,,,,,,,,,,,,,,,,,,,,,,,,,,,,,,,,,0,4,4,4,1,sixAudio.xlsx,,,,,,,,,,,,,,,,,,,,,,,,,,,,,,,,,,,,,,,,,,,,,,,,,,,,,,,,,,,,,
,,,,,,,,,828,001,ABC,2022-01-12_09h06.57.841,workingMemoryTest,2020.2.10,Win32,60,,,,,,,,,,,,,,,,,,,,,,,,,,,,,,,,,,,,,,,,,,,,,,,,,,,8241973,Audio/8241973.mp3,8241973,4.1481,1,0,0,0,0,1,7,,,,,,,,,,,,,,,,,,,,,,,,,,,,,,,,,,,,,,,,,,,,,,,,,,,,,,,,,,,,,,,,,,,
,,,,,,,,,828,001,ABC,2022-01-12_09h06.57.841,workingMemoryTest,2020.2.10,Win32,60,,,,,,,,,,,,,,,,,,,,,,,,,,,,,,,,,,,,,,,,,,,,,,,,,,,,,,,,,,,,,,0,5,5,5,1,sevenAudio.xlsx,,,,,,,,,,,,,,,,,,,,,,,,,,,,,,,,,,,,,,,,,,,,,,,,,,,,,,,,,,,,,
,,,,,,,,,828,001,ABC,2022-01-12_09h06.57.841,workingMemoryTest,2020.2.10,Win32,60,,,,,,,,,,,,,,,,,,,,,,,,,,,,,,,,,,,,,,,,,,,,,,,,,,,53827164,Audio/53827164.mp3,53827164,4.9818,1,0,0,0,0,1,8,,,,,,,,,,,,,,,,,,,,,,,,,,,,,,,,,,,,,,,,,,,,,,,,,,,,,,,,,,,,,,,,,,,
,,,,,,,,,828,001,ABC,2022-01-12_09h06.57.841,workingMemoryTest,2020.2.10,Win32,60,,,,,,,,,,,,,,,,,,,,,,,,,,,,,,,,,,,,,,,,,,,,,,,,,,,,,,,,,,,,,,0,6,6,6,1,eightAudio.xlsx,,,,,,,,,,,,,,,,,,,,,,,,,,,,,,,,,,,,,,,,,,,,,,,,,,,,,,,,,,,,,
,,,,,,,,,828,001,ABC,2022-01-12_09h06.57.841,workingMemoryTest,2020.2.10,Win32,60,,,,,,,,,,,,,,,,,,,,,,,,,,,,,,,,,,,,,,,,,,,,,,,,,,,682594316,Audio/682594316.mp3,682594316,5.2985,1,0,0,0,0,1,9,,,,,,,,,,,,,,,,,,,,,,,,,,,,,,,,,,,,,,,,,,,,,,,,,,,,,,,,,,,,,,,,,,,
,,,,,,,,,828,001,ABC,2022-01-12_09h06.57.841,workingMemoryTest,2020.2.10,Win32,60,,,,,,,,,,,,,,,,,,,,,,,,,,,,,,,,,,,,,,,,,,,,,,,,,,,,,,,,,,,,,,0,7,7,7,1,nineAudio.xlsx,,,,,,,,,,,,,,,,,,,,,,,,,,,,,,,,,,,,,,,,,,,,,,,,,,,,,,,,,,,,,
,,,,,,,,,828,001,ABC,2022-01-12_09h06.57.841,workingMemoryTest,2020.2.10,Win32,60,,,,,,,,,,,,,,,,,,,,,,,,,,,,,,,,,,,,,,,,,,,,,,,,,,,,,,,,,,,,,,,,,,,,97,4.369,1,0,0,0,0,1,2,97,Audio/97.mp3,,,,,,,,,,,,,,,,,,,,,,,,,,,,,,,,,,,,,,,,,,,,,,,,,,
,,,,,,,,,828,001,ABC,2022-01-12_09h06.57.841,workingMemoryTest,2020.2.10,Win32,60,,,,,,,,,,,,,,,,,,,,,,,,,,,,,,,,,,,,,,,,,,,,,,,,,,,,,,,,,,,,,,,,,,,,,,,,,,,,,,,0,0,0,0,1,twoWAIS.xlsx,,,,,,,,,,,,,,,,,,,,,,,,,,,,,,,,,,,,,,,,,,,,
,,,,,,,,,828,001,ABC,2022-01-12_09h06.57.841,workingMemoryTest,2020.2.10,Win32,60,,,,,,,,,,,,,,,,,,,,,,,,,,,,,,,,,,,,,,,,,,,,,,,,,,,,,,,,,,,,,,,,,,,,582,1.1656,1,0,0,0,0,1,3,582,Audio/582.mp3,,,,,,,,,,,,,,,,,,,,,,,,,,,,,,,,,,,,,,,,,,,,,,,,,,
,,,,,,,,,828,001,ABC,2022-01-12_09h06.57.841,workingMemoryTest,2020.2.10,Win32,60,,,,,,,,,,,,,,,,,,,,,,,,,,,,,,,,,,,,,,,,,,,,,,,,,,,,,,,,,,,,,,,,,,,,,,,,,,,,,,,0,1,1,1,1,threeWAIS.xlsx,,,,,,,,,,,,,,,,,,,,,,,,,,,,,,,,,,,,,,,,,,,,
,,,,,,,,,828,001,ABC,2022-01-12_09h06.57.841,workingMemoryTest,2020.2.10,Win32,60,,,,,,,,,,,,,,,,,,,,,,,,,,,,,,,,,,,,,,,,,,,,,,,,,,,,,,,,,,,,,,,,,,,,7286,2.1316,1,0,0,0,0,1,4,7286,Audio/7286.mp3,,,,,,,,,,,,,,,,,,,,,,,,,,,,,,,,,,,,,,,,,,,,,,,,,,
,,,,,,,,,828,001,ABC,2022-01-12_09h06.57.841,workingMemoryTest,2020.2.10,Win32,60,,,,,,,,,,,,,,,,,,,,,,,,,,,,,,,,,,,,,,,,,,,,,,,,,,,,,,,,,,,,,,,,,,,,,,,,,,,,,,,0,2,2,2,1,fourWAIS.xlsx,,,,,,,,,,,,,,,,,,,,,,,,,,,,,,,,,,,,,,,,,,,,
,,,,,,,,,828,001,ABC,2022-01-12_09h06.57.841,workingMemoryTest,2020.2.10,Win32,60,,,,,,,,,,,,,,,,,,,,,,,,,,,,,,,,,,,,,,,,,,,,,,,,,,,,,,,,,,,,,,,,,,,,42731,2.943,1,0,0,0,0,1,5,42731,Audio/42731.mp3,,,,,,,,,,,,,,,,,,,,,,,,,,,,,,,,,,,,,,,,,,,,,,,,,,
,,,,,,,,,828,001,ABC,2022-01-12_09h06.57.841,workingMemoryTest,2020.2.10,Win32,60,,,,,,,,,,,,,,,,,,,,,,,,,,,,,,,,,,,,,,,,,,,,,,,,,,,,,,,,,,,,,,,,,,,,,,,,,,,,,,,0,3,3,3,1,fiveWAIS.xlsx,,,,,,,,,,,,,,,,,,,,,,,,,,,,,,,,,,,,,,,,,,,,
,,,,,,,,,828,001,ABC,2022-01-12_09h06.57.841,workingMemoryTest,2020.2.10,Win32,60,,,,,,,,,,,,,,,,,,,,,,,,,,,,,,,,,,,,,,,,,,,,,,,,,,,,,,,,,,,,,,,,,,,,392487,3.3984,1,0,0,0,0,1,6,392487,Audio/392487.mp3,,,,,,,,,,,,,,,,,,,,,,,,,,,,,,,,,,,,,,,,,,,,,,,,,,
,,,,,,,,,828,001,ABC,2022-01-12_09h06.57.841,workingMemoryTest,2020.2.10,Win32,60,,,,,,,,,,,,,,,,,,,,,,,,,,,,,,,,,,,,,,,,,,,,,,,,,,,,,,,,,,,,,,,,,,,,,,,,,,,,,,,0,4,4,4,1,sixWAIS.xlsx,,,,,,,,,,,,,,,,,,,,,,,,,,,,,,,,,,,,,,,,,,,,
,,,,,,,,,828,001,ABC,2022-01-12_09h06.57.841,workingMemoryTest,2020.2.10,Win32,60,,,,,,,,,,,,,,,,,,,,,,,,,,,,,,,,,,,,,,,,,,,,,,,,,,,,,,,,,,,,,,,,,,,,697428,5.2483,0,0,0,0,0,1,7,6917428,Audio/6917428.mp3,,,,,,,,,,,,,,,,,,,,,,,,,,,,,,,,,,,,,,,,,,,,,,,,,,
,,,,,,,,,828,001,ABC,2022-01-12_09h06.57.841,workingMemoryTest,2020.2.10,Win32,60,,,,,,,,,,,,,,,,,,,,,,,,,,,,,,,,,,,,,,,,,,,,,,,,,,,,,,,,,,,,,,,,,,,,417921386,5.6644,0,0,1,1,1,1,7,4179386,Audio/4179386.mp3,,,,,,,,,,,,,,,,,,,,,,,,,,,,,,,,,,,,,,,,,,,,,,,,,,
,,,,,,,,,828,001,ABC,2022-01-12_09h06.57.841,workingMemoryTest,2020.2.10,Win32,60,,,,,,,,,,,,,,,,,,,,,,,,,,,,,,,,,,,,,,,,,,,,,,,,,,,,,,,,,,,,,,,,,,,,,,,,,,,,,,,,,,,,,0,0,0,0,1,,,,,,,,,,,,,,,,,,,,,,,,,,,,,,,,,,,,,,,
,,,,,,,,,828,001,ABC,2022-01-12_09h06.57.841,workingMemoryTest,2020.2.10,Win32,60,,,,,,,,,,,,,,,,,,,,,,,,,,,,,,,,,,0,1,1,1,1,0,1,0,,,,,,,,,,,,,,,,,,,,,,,,,,,,,,,,,,,,,,,,,,,,,,,,,,,,,,,,,,,,,,,,,,,,,,,,,,,,,,,,,,,,,,,
,,,,,,,,,828,001,ABC,2022-01-12_09h06.57.841,workingMemoryTest,2020.2.10,Win32,60,,,,,,,,,,,,,,,,,,,,,,,,,,,,,,,,,,,,,,,,,,,,,,,,,,,,,,,,,,,,,,,,,,,,,,,,,,,,,,,,,,,,,,,,,,TRUE,0.053703718,-0.340740753,1,0,0,0,0,0,1,1,,3,3,,,,,,,,,,,,,,,,,,,,,,,,,
,,,,,,,,,828,001,ABC,2022-01-12_09h06.57.841,workingMemoryTest,2020.2.10,Win32,60,,,,,,,,,,,,,,,,,,,,,,,,,,,,,,,,,,,,,,,,,,,,,,,,,,,,,,,,,,,,,,,,,,,,,,,,,,,,,,,,,,,,,,,,,,TRUE,0.067592607,-0.36203705,1,0,0,0,1,1,2,1,,3,3,,,,,,,,,,,,,,,,,,,,,,,,,
,,,,,,,,,828,001,ABC,2022-01-12_09h06.57.841,workingMemoryTest,2020.2.10,Win32,60,,,,,,,,,,,,,,,,,,,,,,,,,,,,,,,,,,,,,,,,,,,,,,,,,,,,,,,,,,,,,,,,,,,,,,,,,,,,,,,,,,,,,,,,,,TRUE,0.060185199,-0.351851865,1,0,0,0,2,2,0,1,,3,3,,,,,,,,,,,,,,,,,,,,,,,,,
,,,,,,,,,828,001,ABC,2022-01-12_09h06.57.841,workingMemoryTest,2020.2.10,Win32,60,,,,,,,,,,,,,,,,,,,,,,,,,,,,,,,,,,,,,,,,,,,,,,,,,,,,,,,,,,,,,,,,,,,,,,,,,,,,,,,,,,,,,,,,,,,,,,,,,,,,,,2,2,TRUE,0.011111181,-0.379629643,1,0,0,0,0,0,0,1,2,2,,,,,,,,,,,,
,,,,,,,,,828,001,ABC,2022-01-12_09h06.57.841,workingMemoryTest,2020.2.10,Win32,60,,,,,,,,,,,,,,,,,,,,,,,,,,,,,,,,,,,,,,,,,,,,,,,,,,,,,,,,,,,,,,,,,,,,,,,,,,,,,,,,,,,,,,,,,,,,,,,,,,,,,,2,2,TRUE,-0.024999987,-0.359259272,1,0,0,0,1,1,1,1,2,2,,,,,,,,,,,,
,,,,,,,,,828,001,ABC,2022-01-12_09h06.57.841,workingMemoryTest,2020.2.10,Win32,60,,,,,,,,,,,,,,,,,,,,,,,,,,,,,,,,,,,,,,,,,,,,,,,,,,,,,,,,,,,,,,,,,,,,,,,,,,,,,,,,,,,,,,,,,,,,,,,,,,,,,,2,2,TRUE,-0.028703691,-0.364814828,1,0,0,0,2,2,2,1,2,2,,,,,,,,,,,,
,,,,,,,,,828,001,ABC,2022-01-12_09h06.57.841,workingMemoryTest,2020.2.10,Win32,60,,,,,,,,,,,,,,,,,,,,,,,,,,,,,,,,,,,,,,,,,,,,,,,,,,,,,,,,,,,,,,,,,,,,,,,,,,,,,,,,,,,,,,,,,,,,,,,,,,,,,,,,,,,,,,,,,,,,,0,0,0,0,1,blockTwo.xlsx,Ready for the next set? ,,,,,
,,,,,,,,,828,001,ABC,2022-01-12_09h06.57.841,workingMemoryTest,2020.2.10,Win32,60,,,,,,,,,,,,,,,,,,,,,,,,,,,,,,,,,,,,,,,,,,,,,,,,,,,,,,,,,,,,,,,,,,,,,,,,,,,,,,,,,,,,,,,,,,,,,,,,,,,,,,3,3,TRUE,-0.021296227,-0.36666668,1,0,0,0,0,0,0,1,3,2,,,,,,,,,,,,
,,,,,,,,,828,001,ABC,2022-01-12_09h06.57.841,workingMemoryTest,2020.2.10,Win32,60,,,,,,,,,,,,,,,,,,,,,,,,,,,,,,,,,,,,,,,,,,,,,,,,,,,,,,,,,,,,,,,,,,,,,,,,,,,,,,,,,,,,,,,,,,,,,,,,,,,,,,3,3,TRUE,0.026851865,-0.338888901,1,0,0,0,1,1,1,1,3,2,,,,,,,,,,,,
,,,,,,,,,828,001,ABC,2022-01-12_09h06.57.841,workingMemoryTest,2020.2.10,Win32,60,,,,,,,,,,,,,,,,,,,,,,,,,,,,,,,,,,,,,,,,,,,,,,,,,,,,,,,,,,,,,,,,,,,,,,,,,,,,,,,,,,,,,,,,,,,,,,,,,,,,,,3,3,TRUE,-0.056481469,-0.351851865,1,0,0,0,2,2,2,1,3,2,,,,,,,,,,,,
,,,,,,,,,828,001,ABC,2022-01-12_09h06.57.841,workingMemoryTest,2020.2.10,Win32,60,,,,,,,,,,,,,,,,,,,,,,,,,,,,,,,,,,,,,,,,,,,,,,,,,,,,,,,,,,,,,,,,,,,,,,,,,,,,,,,,,,,,,,,,,,,,,,,,,,,,,,,,,,,,,,,,,,,,,0,1,1,1,1,blockThree.xlsx,Ready for the next set? ,,,,,
,,,,,,,,,828,001,ABC,2022-01-12_09h06.57.841,workingMemoryTest,2020.2.10,Win32,60,,,,,,,,,,,,,,,,,,,,,,,,,,,,,,,,,,,,,,,,,,,,,,,,,,,,,,,,,,,,,,,,,,,,,,,,,,,,,,,,,,,,,,,,,,,,,,,,,,,,,,3,3,TRUE,0.040740755,-0.340740753,1,0,0,0,0,0,0,1,4,2,,,,,,,,,,,,
,,,,,,,,,828,001,ABC,2022-01-12_09h06.57.841,workingMemoryTest,2020.2.10,Win32,60,,,,,,,,,,,,,,,,,,,,,,,,,,,,,,,,,,,,,,,,,,,,,,,,,,,,,,,,,,,,,,,,,,,,,,,,,,,,,,,,,,,,,,,,,,,,,,,,,,,,,,3,3,TRUE,0.026851865,-0.341666679,1,0,0,0,1,1,1,1,4,2,,,,,,,,,,,,
,,,,,,,,,828,001,ABC,2022-01-12_09h06.57.841,workingMemoryTest,2020.2.10,Win32,60,,,,,,,,,,,,,,,,,,,,,,,,,,,,,,,,,,,,,,,,,,,,,,,,,,,,,,,,,,,,,,,,,,,,,,,,,,,,,,,,,,,,,,,,,,,,,,,,,,,,,,3,3,TRUE,0.024074088,-0.32777779,1,0,0,0,2,2,2,1,4,2,,,,,,,,,,,,
,,,,,,,,,828,001,ABC,2022-01-12_09h06.57.841,workingMemoryTest,2020.2.10,Win32,60,,,,,,,,,,,,,,,,,,,,,,,,,,,,,,,,,,,,,,,,,,,,,,,,,,,,,,,,,,,,,,,,,,,,,,,,,,,,,,,,,,,,,,,,,,,,,,,,,,,,,,,,,,,,,,,,,,,,,0,2,2,2,1,blockFour.xlsx,Ready for the next set? ,,,,,
,,,,,,,,,828,001,ABC,2022-01-12_09h06.57.841,workingMemoryTest,2020.2.10,Win32,60,,,,,,,,,,,,,,,,,,,,,,,,,,,,,,,,,,,,,,,,,,,,,,,,,,,,,,,,,,,,,,,,,,,,,,,,,,,,,,,,,,,,,,,,,,,,,,,,,,,,,,4,4,TRUE,-0.026851839,-0.35740742,1,0,0,0,0,0,0,1,5,,,,,,,,,,,,,
,,,,,,,,,828,001,ABC,2022-01-12_09h06.57.841,workingMemoryTest,2020.2.10,Win32,60,,,,,,,,,,,,,,,,,,,,,,,,,,,,,,,,,,,,,,,,,,,,,,,,,,,,,,,,,,,,,,,,,,,,,,,,,,,,,,,,,,,,,,,,,,,,,,,,,,,,,,4,4,TRUE,-0.027777765,-0.334259272,1,0,0,0,1,1,1,1,5,,,,,,,,,,,,,
,,,,,,,,,828,001,ABC,2022-01-12_09h06.57.841,workingMemoryTest,2020.2.10,Win32,60,,,,,,,,,,,,,,,,,,,,,,,,,,,,,,,,,,,,,,,,,,,,,,,,,,,,,,,,,,,,,,,,,,,,,,,,,,,,,,,,,,,,,,,,,,,,,,,,,,,,,,4,4,TRUE,0.019444458,-0.354629642,1,0,0,0,2,2,2,1,5,,,,,,,,,,,,,
,,,,,,,,,828,001,ABC,2022-01-12_09h06.57.841,workingMemoryTest,2020.2.10,Win32,60,,,,,,,,,,,,,,,,,,,,,,,,,,,,,,,,,,,,,,,,,,,,,,,,,,,,,,,,,,,,,,,,,,,,,,,,,,,,,,,,,,,,,,,,,,,,,,,,,,,,,,,,,,,,,,,,,,,,,0,3,3,3,1,blockFive.xlsx,Ready for the next set? ,,,,,
,,,,,,,,,828,001,ABC,2022-01-12_09h06.57.841,workingMemoryTest,2020.2.10,Win32,60,,,,,,,,,,,,,,,,,,,,,,,,,,,,,,,,,,,,,,,,,,,,,,,,,,,,,,,,,,,,,,,,,,,,,,,,,,,,,,,,,,,,,,,,,,,,,,,,,,,,,,4,4,TRUE,-0.049999987,-0.322222234,1,0,0,0,0,0,0,1,6,,,,,,,,,,,,,
,,,,,,,,,828,001,ABC,2022-01-12_09h06.57.841,workingMemoryTest,2020.2.10,Win32,60,,,,,,,,,,,,,,,,,,,,,,,,,,,,,,,,,,,,,,,,,,,,,,,,,,,,,,,,,,,,,,,,,,,,,,,,,,,,,,,,,,,,,,,,,,,,,,,,,,,,,,4,4,TRUE,0.014814828,-0.345370383,1,0,0,0,1,1,1,1,6,,,,,,,,,,,,,
,,,,,,,,,828,001,ABC,2022-01-12_09h06.57.841,workingMemoryTest,2020.2.10,Win32,60,,,,,,,,,,,,,,,,,,,,,,,,,,,,,,,,,,,,,,,,,,,,,,,,,,,,,,,,,,,,,,,,,,,,,,,,,,,,,,,,,,,,,,,,,,,,,,,,,,,,,,4,4,TRUE,0.087037052,-0.361111124,1,0,0,0,2,2,2,1,6,,,,,,,,,,,,,
,,,,,,,,,828,001,ABC,2022-01-12_09h06.57.841,workingMemoryTest,2020.2.10,Win32,60,,,,,,,,,,,,,,,,,,,,,,,,,,,,,,,,,,,,,,,,,,,,,,,,,,,,,,,,,,,,,,,,,,,,,,,,,,,,,,,,,,,,,,,,,,,,,,,,,,,,,,,,,,,,,,,,,,,,,0,4,4,4,1,blockSix.xlsx,Ready for the next set? ,,,,,
,,,,,,,,,828,001,ABC,2022-01-12_09h06.57.841,workingMemoryTest,2020.2.10,Win32,60,,,,,,,,,,,,,,,,,,,,,,,,,,,,,,,,,,,,,,,,,,,,,,,,,,,,,,,,,,,,,,,,,,,,,,,,,,,,,,,,,,,,,,,,,,,,,,,,,,,,,,4,4,TRUE,0.067592607,-0.328703716,1,0,0,0,0,0,0,1,7,,,,,,,,,,,,,
,,,,,,,,,828,001,ABC,2022-01-12_09h06.57.841,workingMemoryTest,2020.2.10,Win32,60,,,,,,,,,,,,,,,,,,,,,,,,,,,,,,,,,,,,,,,,,,,,,,,,,,,,,,,,,,,,,,,,,,,,,,,,,,,,,,,,,,,,,,,,,,,,,,,,,,,,,,4,4,TRUE,0.010185199,-0.358333403,1,0,0,0,1,1,1,1,7,,,,,,,,,,,,,
,,,,,,,,,828,001,ABC,2022-01-12_09h06.57.841,workingMemoryTest,2020.2.10,Win32,60,,,,,,,,,,,,,,,,,,,,,,,,,,,,,,,,,,,,,,,,,,,,,,,,,,,,,,,,,,,,,,,,,,,,,,,,,,,,,,,,,,,,,,,,,,,,,,,,,,,,,,4,4,TRUE,0.009259273,-0.373148161,1,0,0,0,2,2,2,1,7,,,,,,,,,,,,,
,,,,,,,,,828,001,ABC,2022-01-12_09h06.57.841,workingMemoryTest,2020.2.10,Win32,60,,,,,,,,,,,,,,,,,,,,,,,,,,,,,,,,,,,,,,,,,,,,,,,,,,,,,,,,,,,,,,,,,,,,,,,,,,,,,,,,,,,,,,,,,,,,,,,,,,,,,,,,,,,,,,,,,,,,,0,5,5,5,1,blockSeven.xlsx,Ready for the next set? ,,,,,
,,,,,,,,,828,001,ABC,2022-01-12_09h06.57.841,workingMemoryTest,2020.2.10,Win32,60,,,,,,,,,,,,,,,,,,,,,,,,,,,,,,,,,,,,,,,,,,,,,,,,,,,,,,,,,,,,,,,,,,,,,,,,,,,,,,,,,,,,,,,,,,,,,,,,,,,,,,4,4,FALSE,0.048148219,-0.35277779,1,0,0,0,0,0,0,1,8,,,,,,,,,,,,,
,,,,,,,,,828,001,ABC,2022-01-12_09h06.57.841,workingMemoryTest,2020.2.10,Win32,60,,,,,,,,,,,,,,,,,,,,,,,,,,,,,,,,,,,,,,,,,,,,,,,,,,,,,,,,,,,,,,,,,,,,,,,,,,,,,,,,,,,,,,,,,,,,,,,,,,,,,,4,4,TRUE,0.033333347,-0.341666679,1,0,0,0,1,1,1,1,8,,,,,,,,,,,,,
,,,,,,,,,828,001,ABC,2022-01-12_09h06.57.841,workingMemoryTest,2020.2.10,Win32,60,,,,,,,,,,,,,,,,,,,,,,,,,,,,,,,,,,,,,,,,,,,,,,,,,,,,,,,,,,,,,,,,,,,,,,,,,,,,,,,,,,,,,,,,,,,,,,,,,,,,,,4,4,TRUE,0.077777792,-0.311111123,1,0,0,0,2,2,2,1,8,,,,,,,,,,,,,
,,,,,,,,,828,001,ABC,2022-01-12_09h06.57.841,workingMemoryTest,2020.2.10,Win32,60,,,,,,,,,,,,,,,,,,,,,,,,,,,,,,,,,,,,,,,,,,,,,,,,,,,,,,,,,,,,,,,,,,,,,,,,,,,,,,,,,,,,,,,,,,,,,,,,,,,,,,,,,,,,,,,,,,,,,0,6,6,6,1,blockEight.xlsx,Ready for the next set? ,,,,,
,,,,,,,,,828,001,ABC,2022-01-12_09h06.57.841,workingMemoryTest,2020.2.10,Win32,60,,,,,,,,,,,,,,,,,,,,,,,,,,,,,,,,,,,,,,,,,,,,,,,,,,,,,,,,,,,,,,,,,,,,,,,,,,,,,,,,,,,,,,,,,,,,,,,,,,,,,,5,5,TRUE,0.018518532,-0.353703773,1,0,0,0,0,0,0,1,9,,,,,,,,,,,,,
,,,,,,,,,828,001,ABC,2022-01-12_09h06.57.841,workingMemoryTest,2020.2.10,Win32,60,,,,,,,,,,,,,,,,,,,,,,,,,,,,,,,,,,,,,,,,,,,,,,,,,,,,,,,,,,,,,,,,,,,,,,,,,,,,,,,,,,,,,,,,,,,,,,,,,,,,,,5,5,FALSE,-0.016666597,-0.369444457,1,0,0,0,1,1,1,1,9,,,,,,,,,,,,,
,,,,,,,,,828,001,ABC,2022-01-12_09h06.57.841,workingMemoryTest,2020.2.10,Win32,60,,,,,,,,,,,,,,,,,,,,,,,,,,,,,,,,,,,,,,,,,,,,,,,,,,,,,,,,,,,,,,,,,,,,,,,,,,,,,,,,,,,,,,,,,,,,,,,,,,,,,,5,5,TRUE,0.0851852,-0.35277779,1,0,0,0,2,2,2,1,9,,,,,,,,,,,,,
,,,,,,,,,828,001,ABC,2022-01-12_09h06.57.841,workingMemoryTest,2020.2.10,Win32,60,,,,,,,,,,,,,,,,,,,,,,,,,,,,,,,,,,,,,,,,,,,,,,,,,,,,,,,,,,,,,,,,,,,,,,,,,,,,,,,,,,,,,,,,,,,,,,,,,,,,,,,,,,,,,,,,,,,,,0,7,7,7,1,blockNine.xlsx,Ready for the next set? ,,,,,
,,,,,,,,,828,001,ABC,2022-01-12_09h06.57.841,workingMemoryTest,2020.2.10,Win32,60,,,,,,,,,,,,,,,,,,,,,,,,,,,,,,,,,,,,,,,,,,,,,,,,,,,,,,,,,,,,,,,,,,,,,,,,,,,,,,,,,,,,,,,,,,,,,,,,,,,,,,5,5,FALSE,-0.024074061,-0.343518531,1,0,0,0,0,0,0,1,10,,,,,,,,,,,,,
,,,,,,,,,828,001,ABC,2022-01-12_09h06.57.841,workingMemoryTest,2020.2.10,Win32,60,,,,,,,,,,,,,,,,,,,,,,,,,,,,,,,,,,,,,,,,,,,,,,,,,,,,,,,,,,,,,,,,,,,,,,,,,,,,,,,,,,,,,,,,,,,,,,,,,,,,,,5,5,TRUE,-0.021296227,-0.367592662,1,0,0,0,1,1,1,1,10,,,,,,,,,,,,,
,,,,,,,,,828,001,ABC,2022-01-12_09h06.57.841,workingMemoryTest,2020.2.10,Win32,60,,,,,,,,,,,,,,,,,,,,,,,,,,,,,,,,,,,,,,,,,,,,,,,,,,,,,,,,,,,,,,,,,,,,,,,,,,,,,,,,,,,,,,,,,,,,,,,,,,,,,,5,5,TRUE,-0.004629616,-0.318518531,1,0,0,0,2,2,2,1,10,,,,,,,,,,,,,
,,,,,,,,,828,001,ABC,2022-01-12_09h06.57.841,workingMemoryTest,2020.2.10,Win32,60,,,,,,,,,,,,,,,,,,,,,,,,,,,,,,,,,,,,,,,,,,,,,,,,,,,,,,,,,,,,,,,,,,,,,,,,,,,,,,,,,,,,,,,,,,,,,,,,,,,,,,,,,,,,,,,,,,,,,0,8,8,8,1,blockTen.xlsx,Ready for the next set? ,,,,,
,,,,,,,,,828,001,ABC,2022-01-12_09h06.57.841,workingMemoryTest,2020.2.10,Win32,60,,,,,,,,,,,,,,,,,,,,,,,,,,,,,,,,,,,,,,,,,,,,,,,,,,,,,,,,,,,,,,,,,,,,,,,,,,,,,,,,,,,,,,,,,,,,,,,,,,,,,,5,5,FALSE,-0.064814803,-0.346296309,1,0,0,0,0,0,0,1,11,,,,,,,,,,,,,
,,,,,,,,,828,001,ABC,2022-01-12_09h06.57.841,workingMemoryTest,2020.2.10,Win32,60,,,,,,,,,,,,,,,,,,,,,,,,,,,,,,,,,,,,,,,,,,,,,,,,,,,,,,,,,,,,,,,,,,,,,,,,,,,,,,,,,,,,,,,,,,,,,,,,,,,,,,5,5,FALSE,0.119444459,-0.318518531,1,0,0,0,1,1,1,1,11,,,,,,,,,,,,,
,,,,,,,,,828,001,ABC,2022-01-12_09h06.57.841,workingMemoryTest,2020.2.10,Win32,60,,,,,,,,,,,,,,,,,,,,,,,,,,,,,,,,,,,,,,,,,,,,,,,,,,,,,,,,,,,,,,,,,,,,,,,,,,,,,,,,,,,,,,,,,,,,,,,,,,,,,,,,,,,,,,,,,,,,,,,,,,,,0,0,0,0,1
,,,,,,,,,828,001,ABC,2022-01-12_09h06.57.841,workingMemoryTest,2020.2.10,Win32,60,,,,,,,,,,,,,,,,,,,,,,,,,,,,,,,,,,0,2,2,2,1,0,0,1,,,,,,,,,,,,,,,,,,,,,,,,,,,,,,,,,,,,,,,,,,,,,,,,,,,,,,,,,,,,,,,,,,,,,,,,,,,,,,,,,,,,,,,
