typedNumber,typingRT,answerCorr,typingLoopPract.thisRepN,typingLoopPract.thisTrialN,typingLoopPract.thisN,typingLoopPract.thisIndex,typingLoopPract.ran,productNo,participant,session,group,date,expName,psychopyVersion,OS,frameRate,typingRTrial.thisRepN,typingRTrial.thisTrialN,typingRTrial.thisN,typingRTrial.thisIndex,typingRTrial.ran,typedAnswer,multiplyRT,multiplyCorr,multiLoopPrac.thisRepN,multiLoopPrac.thisTrialN,multiLoopPrac.thisN,multiLoopPrac.thisIndex,multiLoopPrac.ran,problem,OperandType,productType,Answer,multiRTrial.thisRepN,multiRTrial.thisTrialN,multiRTrial.thisN,multiRTrial.thisIndex,multiRTrial.ran,trials_2.thisRepN,trials_2.thisTrialN,trials_2.thisN,trials_2.thisIndex,trials_2.ran,fileee,TaskA.thisRepN,TaskA.thisTrialN,TaskA.thisN,TaskA.thisIndex,TaskA.ran,TaskOrderCond.thisRepN,TaskOrderCond.thisTrialN,TaskOrderCond.thisN,TaskOrderCond.thisIndex,TaskOrderCond.ran,nRepsTask1,nRepsTask2,nRepsTask3,typedAudioPrac,audioPracRT,audioPrCorr,audioLoopPrac.thisRepN,audioLoopPrac.thisTrialN,audioLoopPrac.thisN,audioLoopPrac.thisIndex,audioLoopPrac.ran,audiospan,digits_audio,soundsJS,EgnerDSresponse,EgnerDSrt,EgnerDSscore,audioRTrial.thisRepN,audioRTrial.thisTrialN,audioRTrial.thisN,audioRTrial.thisIndex,audioRTrial.ran,digitSpan,audioCondLoop.thisRepN,audioCondLoop.thisTrialN,audioCondLoop.thisN,audioCondLoop.thisIndex,audioCondLoop.ran,Condition,WAISDSresponse,WAISDSrt,WAISDSscore,audioRTrialwais.thisRepN,audioRTrialwais.thisTrialN,audioRTrialwais.thisN,audioRTrialwais.thisIndex,audioRTrialwais.ran,digitSpanWAIS,digits_audioWAIS,soundsWAIS,audioCondLoopwais.thisRepN,audioCondLoopwais.thisTrialN,audioCondLoopwais.thisN,audioCondLoopwais.thisIndex,audioCondLoopwais.ran,ConditionWAIS,TaskB.thisRepN,TaskB.thisTrialN,TaskB.thisN,TaskB.thisIndex,TaskB.ran,correct,respMousePrac.x,respMousePrac.y,respMousePrac.leftButton,respMousePrac.midButton,respMousePrac.rightButton,vptLoopPrac.thisRepN,vptLoopPrac.thisTrialN,vptLoopPrac.thisN,vptLoopPrac.thisIndex,vptLoopPrac.ran,tiles,rows,cols,vptCorrect,respMouse.x,respMouse.y,respMouse.leftButton,respMouse.midButton,respMouse.rightButton,trials.thisRepN,trials.thisTrialN,trials.thisN,trials.thisIndex,trials.ran,noOfBlocks,blockDuration,conditionLoop.thisRepN,conditionLoop.thisTrialN,conditionLoop.thisN,conditionLoop.thisIndex,conditionLoop.ran,sheet,readyMsg,TaskC.thisRepN,TaskC.thisTrialN,TaskC.thisN,TaskC.thisIndex,TaskC.ran
39,4.3826,1,0,0,0,0,1,39,856,001,ABC,2021-09-13_17h46.49.820,workingMemoryTest,2020.2.10,MacIntel,60,,,,,,,,,,,,,,,,,,,,,,,,,,,,,,,,,,,,,,,,,,,,,,,,,,,,,,,,,,,,,,,,,,,,,,,,,,,,,,,,,,,,,,,,,,,,,,,,,,,,,,,,,,,,,,,,,,,,,,,,,,,,,,,,
41,1.6837,1,0,1,1,1,1,41,856,001,ABC,2021-09-13_17h46.49.820,workingMemoryTest,2020.2.10,MacIntel,60,,,,,,,,,,,,,,,,,,,,,,,,,,,,,,,,,,,,,,,,,,,,,,,,,,,,,,,,,,,,,,,,,,,,,,,,,,,,,,,,,,,,,,,,,,,,,,,,,,,,,,,,,,,,,,,,,,,,,,,,,,,,,,,,
59,2.2003,1,0,2,2,2,1,59,856,001,ABC,2021-09-13_17h46.49.820,workingMemoryTest,2020.2.10,MacIntel,60,,,,,,,,,,,,,,,,,,,,,,,,,,,,,,,,,,,,,,,,,,,,,,,,,,,,,,,,,,,,,,,,,,,,,,,,,,,,,,,,,,,,,,,,,,,,,,,,,,,,,,,,,,,,,,,,,,,,,,,,,,,,,,,,
42,1.9329,1,,,,,,42,856,001,ABC,2021-09-13_17h46.49.820,workingMemoryTest,2020.2.10,MacIntel,60,0,0,0,19,1,,,,,,,,,,,,,,,,,,,,,,,,,,,,,,,,,,,,,,,,,,,,,,,,,,,,,,,,,,,,,,,,,,,,,,,,,,,,,,,,,,,,,,,,,,,,,,,,,,,,,,,,,,,,,,,,,,,,,,,,,,,
54,1.4836,1,,,,,,54,856,001,ABC,2021-09-13_17h46.49.820,workingMemoryTest,2020.2.10,MacIntel,60,0,1,1,23,1,,,,,,,,,,,,,,,,,,,,,,,,,,,,,,,,,,,,,,,,,,,,,,,,,,,,,,,,,,,,,,,,,,,,,,,,,,,,,,,,,,,,,,,,,,,,,,,,,,,,,,,,,,,,,,,,,,,,,,,,,,,
48,1.5821,1,,,,,,48,856,001,ABC,2021-09-13_17h46.49.820,workingMemoryTest,2020.2.10,MacIntel,60,0,2,2,21,1,,,,,,,,,,,,,,,,,,,,,,,,,,,,,,,,,,,,,,,,,,,,,,,,,,,,,,,,,,,,,,,,,,,,,,,,,,,,,,,,,,,,,,,,,,,,,,,,,,,,,,,,,,,,,,,,,,,,,,,,,,,
20,2.1512,1,,,,,,20,856,001,ABC,2021-09-13_17h46.49.820,workingMemoryTest,2020.2.10,MacIntel,60,0,3,3,9,1,,,,,,,,,,,,,,,,,,,,,,,,,,,,,,,,,,,,,,,,,,,,,,,,,,,,,,,,,,,,,,,,,,,,,,,,,,,,,,,,,,,,,,,,,,,,,,,,,,,,,,,,,,,,,,,,,,,,,,,,,,,
72,1.8321,1,,,,,,72,856,001,ABC,2021-09-13_17h46.49.820,workingMemoryTest,2020.2.10,MacIntel,60,0,4,4,27,1,,,,,,,,,,,,,,,,,,,,,,,,,,,,,,,,,,,,,,,,,,,,,,,,,,,,,,,,,,,,,,,,,,,,,,,,,,,,,,,,,,,,,,,,,,,,,,,,,,,,,,,,,,,,,,,,,,,,,,,,,,,
6,1.1164,1,,,,,,6,856,001,ABC,2021-09-13_17h46.49.820,workingMemoryTest,2020.2.10,MacIntel,60,0,5,5,0,1,,,,,,,,,,,,,,,,,,,,,,,,,,,,,,,,,,,,,,,,,,,,,,,,,,,,,,,,,,,,,,,,,,,,,,,,,,,,,,,,,,,,,,,,,,,,,,,,,,,,,,,,,,,,,,,,,,,,,,,,,,,
27,1.9002,1,,,,,,27,856,001,ABC,2021-09-13_17h46.49.820,workingMemoryTest,2020.2.10,MacIntel,60,0,6,6,12,1,,,,,,,,,,,,,,,,,,,,,,,,,,,,,,,,,,,,,,,,,,,,,,,,,,,,,,,,,,,,,,,,,,,,,,,,,,,,,,,,,,,,,,,,,,,,,,,,,,,,,,,,,,,,,,,,,,,,,,,,,,,
9,1.3323,1,,,,,,9,856,001,ABC,2021-09-13_17h46.49.820,workingMemoryTest,2020.2.10,MacIntel,60,0,7,7,1,1,,,,,,,,,,,,,,,,,,,,,,,,,,,,,,,,,,,,,,,,,,,,,,,,,,,,,,,,,,,,,,,,,,,,,,,,,,,,,,,,,,,,,,,,,,,,,,,,,,,,,,,,,,,,,,,,,,,,,,,,,,,
21,1.4497,1,,,,,,21,856,001,ABC,2021-09-13_17h46.49.820,workingMemoryTest,2020.2.10,MacIntel,60,0,8,8,10,1,,,,,,,,,,,,,,,,,,,,,,,,,,,,,,,,,,,,,,,,,,,,,,,,,,,,,,,,,,,,,,,,,,,,,,,,,,,,,,,,,,,,,,,,,,,,,,,,,,,,,,,,,,,,,,,,,,,,,,,,,,,
32,1.5335,1,,,,,,32,856,001,ABC,2021-09-13_17h46.49.820,workingMemoryTest,2020.2.10,MacIntel,60,0,9,9,15,1,,,,,,,,,,,,,,,,,,,,,,,,,,,,,,,,,,,,,,,,,,,,,,,,,,,,,,,,,,,,,,,,,,,,,,,,,,,,,,,,,,,,,,,,,,,,,,,,,,,,,,,,,,,,,,,,,,,,,,,,,,,
36,1.4823,1,,,,,,36,856,001,ABC,2021-09-13_17h46.49.820,workingMemoryTest,2020.2.10,MacIntel,60,0,10,10,17,1,,,,,,,,,,,,,,,,,,,,,,,,,,,,,,,,,,,,,,,,,,,,,,,,,,,,,,,,,,,,,,,,,,,,,,,,,,,,,,,,,,,,,,,,,,,,,,,,,,,,,,,,,,,,,,,,,,,,,,,,,,,
15,1.467,1,,,,,,15,856,001,ABC,2021-09-13_17h46.49.820,workingMemoryTest,2020.2.10,MacIntel,60,0,11,11,6,1,,,,,,,,,,,,,,,,,,,,,,,,,,,,,,,,,,,,,,,,,,,,,,,,,,,,,,,,,,,,,,,,,,,,,,,,,,,,,,,,,,,,,,,,,,,,,,,,,,,,,,,,,,,,,,,,,,,,,,,,,,,
63,1.5499,1,,,,,,63,856,001,ABC,2021-09-13_17h46.49.820,workingMemoryTest,2020.2.10,MacIntel,60,0,12,12,25,1,,,,,,,,,,,,,,,,,,,,,,,,,,,,,,,,,,,,,,,,,,,,,,,,,,,,,,,,,,,,,,,,,,,,,,,,,,,,,,,,,,,,,,,,,,,,,,,,,,,,,,,,,,,,,,,,,,,,,,,,,,,
56,1.2841,1,,,,,,56,856,001,ABC,2021-09-13_17h46.49.820,workingMemoryTest,2020.2.10,MacIntel,60,0,13,13,24,1,,,,,,,,,,,,,,,,,,,,,,,,,,,,,,,,,,,,,,,,,,,,,,,,,,,,,,,,,,,,,,,,,,,,,,,,,,,,,,,,,,,,,,,,,,,,,,,,,,,,,,,,,,,,,,,,,,,,,,,,,,,
24,1.5331,1,,,,,,24,856,001,ABC,2021-09-13_17h46.49.820,workingMemoryTest,2020.2.10,MacIntel,60,0,14,14,11,1,,,,,,,,,,,,,,,,,,,,,,,,,,,,,,,,,,,,,,,,,,,,,,,,,,,,,,,,,,,,,,,,,,,,,,,,,,,,,,,,,,,,,,,,,,,,,,,,,,,,,,,,,,,,,,,,,,,,,,,,,,,
16,1.551,1,,,,,,16,856,001,ABC,2021-09-13_17h46.49.820,workingMemoryTest,2020.2.10,MacIntel,60,0,15,15,7,1,,,,,,,,,,,,,,,,,,,,,,,,,,,,,,,,,,,,,,,,,,,,,,,,,,,,,,,,,,,,,,,,,,,,,,,,,,,,,,,,,,,,,,,,,,,,,,,,,,,,,,,,,,,,,,,,,,,,,,,,,,,
14,1.1483,1,,,,,,14,856,001,ABC,2021-09-13_17h46.49.820,workingMemoryTest,2020.2.10,MacIntel,60,0,16,16,5,1,,,,,,,,,,,,,,,,,,,,,,,,,,,,,,,,,,,,,,,,,,,,,,,,,,,,,,,,,,,,,,,,,,,,,,,,,,,,,,,,,,,,,,,,,,,,,,,,,,,,,,,,,,,,,,,,,,,,,,,,,,,
64,2.8157,1,,,,,,64,856,001,ABC,2021-09-13_17h46.49.820,workingMemoryTest,2020.2.10,MacIntel,60,0,17,17,26,1,,,,,,,,,,,,,,,,,,,,,,,,,,,,,,,,,,,,,,,,,,,,,,,,,,,,,,,,,,,,,,,,,,,,,,,,,,,,,,,,,,,,,,,,,,,,,,,,,,,,,,,,,,,,,,,,,,,,,,,,,,,
40,2.0674,1,,,,,,40,856,001,ABC,2021-09-13_17h46.49.820,workingMemoryTest,2020.2.10,MacIntel,60,0,18,18,18,1,,,,,,,,,,,,,,,,,,,,,,,,,,,,,,,,,,,,,,,,,,,,,,,,,,,,,,,,,,,,,,,,,,,,,,,,,,,,,,,,,,,,,,,,,,,,,,,,,,,,,,,,,,,,,,,,,,,,,,,,,,,
28,1.2984,1,,,,,,28,856,001,ABC,2021-09-13_17h46.49.820,workingMemoryTest,2020.2.10,MacIntel,60,0,19,19,13,1,,,,,,,,,,,,,,,,,,,,,,,,,,,,,,,,,,,,,,,,,,,,,,,,,,,,,,,,,,,,,,,,,,,,,,,,,,,,,,,,,,,,,,,,,,,,,,,,,,,,,,,,,,,,,,,,,,,,,,,,,,,
8,1.116,1,,,,,,8,856,001,ABC,2021-09-13_17h46.49.820,workingMemoryTest,2020.2.10,MacIntel,60,0,20,20,2,1,,,,,,,,,,,,,,,,,,,,,,,,,,,,,,,,,,,,,,,,,,,,,,,,,,,,,,,,,,,,,,,,,,,,,,,,,,,,,,,,,,,,,,,,,,,,,,,,,,,,,,,,,,,,,,,,,,,,,,,,,,,
10,1.3991,1,,,,,,10,856,001,ABC,2021-09-13_17h46.49.820,workingMemoryTest,2020.2.10,MacIntel,60,0,21,21,3,1,,,,,,,,,,,,,,,,,,,,,,,,,,,,,,,,,,,,,,,,,,,,,,,,,,,,,,,,,,,,,,,,,,,,,,,,,,,,,,,,,,,,,,,,,,,,,,,,,,,,,,,,,,,,,,,,,,,,,,,,,,,
30,1.7494,1,,,,,,30,856,001,ABC,2021-09-13_17h46.49.820,workingMemoryTest,2020.2.10,MacIntel,60,0,22,22,14,1,,,,,,,,,,,,,,,,,,,,,,,,,,,,,,,,,,,,,,,,,,,,,,,,,,,,,,,,,,,,,,,,,,,,,,,,,,,,,,,,,,,,,,,,,,,,,,,,,,,,,,,,,,,,,,,,,,,,,,,,,,,
49,1.7164,1,,,,,,49,856,001,ABC,2021-09-13_17h46.49.820,workingMemoryTest,2020.2.10,MacIntel,60,0,23,23,22,1,,,,,,,,,,,,,,,,,,,,,,,,,,,,,,,,,,,,,,,,,,,,,,,,,,,,,,,,,,,,,,,,,,,,,,,,,,,,,,,,,,,,,,,,,,,,,,,,,,,,,,,,,,,,,,,,,,,,,,,,,,,
35,1.717,1,,,,,,35,856,001,ABC,2021-09-13_17h46.49.820,workingMemoryTest,2020.2.10,MacIntel,60,0,24,24,16,1,,,,,,,,,,,,,,,,,,,,,,,,,,,,,,,,,,,,,,,,,,,,,,,,,,,,,,,,,,,,,,,,,,,,,,,,,,,,,,,,,,,,,,,,,,,,,,,,,,,,,,,,,,,,,,,,,,,,,,,,,,,
12,1.4323,1,,,,,,12,856,001,ABC,2021-09-13_17h46.49.820,workingMemoryTest,2020.2.10,MacIntel,60,0,25,25,4,1,,,,,,,,,,,,,,,,,,,,,,,,,,,,,,,,,,,,,,,,,,,,,,,,,,,,,,,,,,,,,,,,,,,,,,,,,,,,,,,,,,,,,,,,,,,,,,,,,,,,,,,,,,,,,,,,,,,,,,,,,,,
45,1.2007,1,,,,,,45,856,001,ABC,2021-09-13_17h46.49.820,workingMemoryTest,2020.2.10,MacIntel,60,0,26,26,20,1,,,,,,,,,,,,,,,,,,,,,,,,,,,,,,,,,,,,,,,,,,,,,,,,,,,,,,,,,,,,,,,,,,,,,,,,,,,,,,,,,,,,,,,,,,,,,,,,,,,,,,,,,,,,,,,,,,,,,,,,,,,
18,1.3833,1,,,,,,18,856,001,ABC,2021-09-13_17h46.49.820,workingMemoryTest,2020.2.10,MacIntel,60,0,27,27,8,1,,,,,,,,,,,,,,,,,,,,,,,,,,,,,,,,,,,,,,,,,,,,,,,,,,,,,,,,,,,,,,,,,,,,,,,,,,,,,,,,,,,,,,,,,,,,,,,,,,,,,,,,,,,,,,,,,,,,,,,,,,,
,,,,,,,,,856,001,ABC,2021-09-13_17h46.49.820,workingMemoryTest,2020.2.10,MacIntel,60,,,,,,33,1.8322,1,0,0,0,2,1,3 x 11 =,NA,practiceQ,33,,,,,,,,,,,,,,,,,,,,,,,,,,,,,,,,,,,,,,,,,,,,,,,,,,,,,,,,,,,,,,,,,,,,,,,,,,,,,,,,,,,,,,,,,,,,,,,,,,,,,,,,,,,,,,,
,,,,,,,,,856,001,ABC,2021-09-13_17h46.49.820,workingMemoryTest,2020.2.10,MacIntel,60,,,,,,50,2.001,1,0,1,1,1,1,5 x 10 =,NA,practiceQ,50,,,,,,,,,,,,,,,,,,,,,,,,,,,,,,,,,,,,,,,,,,,,,,,,,,,,,,,,,,,,,,,,,,,,,,,,,,,,,,,,,,,,,,,,,,,,,,,,,,,,,,,,,,,,,,,
,,,,,,,,,856,001,ABC,2021-09-13_17h46.49.820,workingMemoryTest,2020.2.10,MacIntel,60,,,,,,7,1.4499,1,0,2,2,0,1,1 x 7 =,NA,practiceQ,7,,,,,,,,,,,,,,,,,,,,,,,,,,,,,,,,,,,,,,,,,,,,,,,,,,,,,,,,,,,,,,,,,,,,,,,,,,,,,,,,,,,,,,,,,,,,,,,,,,,,,,,,,,,,,,,
,,,,,,,,,856,001,ABC,2021-09-13_17h46.49.820,workingMemoryTest,2020.2.10,MacIntel,60,,,,,,63,5.2834,1,,,,,,7 x 9 =,smallFirst,largeProd,63,0,0,0,26,1,,,,,,,,,,,,,,,,,,,,,,,,,,,,,,,,,,,,,,,,,,,,,,,,,,,,,,,,,,,,,,,,,,,,,,,,,,,,,,,,,,,,,,,,,,,,,,,,,,,,,,,,,,
,,,,,,,,,856,001,ABC,2021-09-13_17h46.49.820,workingMemoryTest,2020.2.10,MacIntel,60,,,,,,15,1.617,1,,,,,,5 x 3 =,largeFirst,smallProd,15,0,1,1,1,1,,,,,,,,,,,,,,,,,,,,,,,,,,,,,,,,,,,,,,,,,,,,,,,,,,,,,,,,,,,,,,,,,,,,,,,,,,,,,,,,,,,,,,,,,,,,,,,,,,,,,,,,,,
,,,,,,,,,856,001,ABC,2021-09-13_17h46.49.820,workingMemoryTest,2020.2.10,MacIntel,60,,,,,,6,1.6005,1,,,,,,2 x 3 =,smallFirst,smallProd,6,0,2,2,14,1,,,,,,,,,,,,,,,,,,,,,,,,,,,,,,,,,,,,,,,,,,,,,,,,,,,,,,,,,,,,,,,,,,,,,,,,,,,,,,,,,,,,,,,,,,,,,,,,,,,,,,,,,,
,,,,,,,,,856,001,ABC,2021-09-13_17h46.49.820,workingMemoryTest,2020.2.10,MacIntel,60,,,,,,48,3.2166,1,,,,,,8 x 6 =,largeFirst,largeProd,48,0,3,3,13,1,,,,,,,,,,,,,,,,,,,,,,,,,,,,,,,,,,,,,,,,,,,,,,,,,,,,,,,,,,,,,,,,,,,,,,,,,,,,,,,,,,,,,,,,,,,,,,,,,,,,,,,,,,
,,,,,,,,,856,001,ABC,2021-09-13_17h46.49.820,workingMemoryTest,2020.2.10,MacIntel,60,,,,,,42,2.5999,1,,,,,,6 x 7 =,smallFirst,largeProd,42,0,4,4,23,1,,,,,,,,,,,,,,,,,,,,,,,,,,,,,,,,,,,,,,,,,,,,,,,,,,,,,,,,,,,,,,,,,,,,,,,,,,,,,,,,,,,,,,,,,,,,,,,,,,,,,,,,,,
,,,,,,,,,856,001,ABC,2021-09-13_17h46.49.820,workingMemoryTest,2020.2.10,MacIntel,60,,,,,,28,6.4173,1,,,,,,7 x 4 =,largeFirst,largeProd,28,0,5,5,7,1,,,,,,,,,,,,,,,,,,,,,,,,,,,,,,,,,,,,,,,,,,,,,,,,,,,,,,,,,,,,,,,,,,,,,,,,,,,,,,,,,,,,,,,,,,,,,,,,,,,,,,,,,,
,,,,,,,,,856,001,ABC,2021-09-13_17h46.49.820,workingMemoryTest,2020.2.10,MacIntel,60,,,,,,21,1.4335,1,,,,,,7 x 3 =,largeFirst,smallProd,21,0,6,6,3,1,,,,,,,,,,,,,,,,,,,,,,,,,,,,,,,,,,,,,,,,,,,,,,,,,,,,,,,,,,,,,,,,,,,,,,,,,,,,,,,,,,,,,,,,,,,,,,,,,,,,,,,,,,
,,,,,,,,,856,001,ABC,2021-09-13_17h46.49.820,workingMemoryTest,2020.2.10,MacIntel,60,,,,,,40,2.2334,1,,,,,,8 x 5 =,largeFirst,largeProd,40,0,7,7,11,1,,,,,,,,,,,,,,,,,,,,,,,,,,,,,,,,,,,,,,,,,,,,,,,,,,,,,,,,,,,,,,,,,,,,,,,,,,,,,,,,,,,,,,,,,,,,,,,,,,,,,,,,,,
,,,,,,,,,856,001,ABC,2021-09-13_17h46.49.820,workingMemoryTest,2020.2.10,MacIntel,60,,,,,,32,2.6503,1,,,,,,4 x 8 =,smallFirst,largeProd,32,0,8,8,22,1,,,,,,,,,,,,,,,,,,,,,,,,,,,,,,,,,,,,,,,,,,,,,,,,,,,,,,,,,,,,,,,,,,,,,,,,,,,,,,,,,,,,,,,,,,,,,,,,,,,,,,,,,,
,,,,,,,,,856,001,ABC,2021-09-13_17h46.49.820,workingMemoryTest,2020.2.10,MacIntel,60,,,,,,14,1.9998,1,,,,,,2 x 7 =,smallFirst,smallProd,14,0,9,9,18,1,,,,,,,,,,,,,,,,,,,,,,,,,,,,,,,,,,,,,,,,,,,,,,,,,,,,,,,,,,,,,,,,,,,,,,,,,,,,,,,,,,,,,,,,,,,,,,,,,,,,,,,,,,
,,,,,,,,,856,001,ABC,2021-09-13_17h46.49.820,workingMemoryTest,2020.2.10,MacIntel,60,,,,,,24,1.9153,1,,,,,,8 x 3 =,largeFirst,smallProd,24,0,10,10,4,1,,,,,,,,,,,,,,,,,,,,,,,,,,,,,,,,,,,,,,,,,,,,,,,,,,,,,,,,,,,,,,,,,,,,,,,,,,,,,,,,,,,,,,,,,,,,,,,,,,,,,,,,,,
,,,,,,,,,856,001,ABC,2021-09-13_17h46.49.820,workingMemoryTest,2020.2.10,MacIntel,60,,,,,,10,2.3657,1,,,,,,2 x 5 =,smallFirst,smallProd,10,0,11,11,16,1,,,,,,,,,,,,,,,,,,,,,,,,,,,,,,,,,,,,,,,,,,,,,,,,,,,,,,,,,,,,,,,,,,,,,,,,,,,,,,,,,,,,,,,,,,,,,,,,,,,,,,,,,,
,,,,,,,,,856,001,ABC,2021-09-13_17h46.49.820,workingMemoryTest,2020.2.10,MacIntel,60,,,,,,16,1.6334,1,,,,,,4 x 4 =,tie,smallProd,16,0,12,12,28,1,,,,,,,,,,,,,,,,,,,,,,,,,,,,,,,,,,,,,,,,,,,,,,,,,,,,,,,,,,,,,,,,,,,,,,,,,,,,,,,,,,,,,,,,,,,,,,,,,,,,,,,,,,
,,,,,,,,,856,001,ABC,2021-09-13_17h46.49.820,workingMemoryTest,2020.2.10,MacIntel,60,,,,,,16,2.5989,1,,,,,,2 x 8 =,smallFirst,smallProd,16,0,13,13,19,1,,,,,,,,,,,,,,,,,,,,,,,,,,,,,,,,,,,,,,,,,,,,,,,,,,,,,,,,,,,,,,,,,,,,,,,,,,,,,,,,,,,,,,,,,,,,,,,,,,,,,,,,,,
,,,,,,,,,856,001,ABC,2021-09-13_17h46.49.820,workingMemoryTest,2020.2.10,MacIntel,60,,,,,,24,1.7828,1,,,,,,4 x 6 =,smallFirst,smallProd,24,0,14,14,20,1,,,,,,,,,,,,,,,,,,,,,,,,,,,,,,,,,,,,,,,,,,,,,,,,,,,,,,,,,,,,,,,,,,,,,,,,,,,,,,,,,,,,,,,,,,,,,,,,,,,,,,,,,,
,,,,,,,,,856,001,ABC,2021-09-13_17h46.49.820,workingMemoryTest,2020.2.10,MacIntel,60,,,,,,30,5.9659,0,,,,,,9 x 6 =,largeFirst,largeProd,54,0,15,15,9,1,,,,,,,,,,,,,,,,,,,,,,,,,,,,,,,,,,,,,,,,,,,,,,,,,,,,,,,,,,,,,,,,,,,,,,,,,,,,,,,,,,,,,,,,,,,,,,,,,,,,,,,,,,
,,,,,,,,,856,001,ABC,2021-09-13_17h46.49.820,workingMemoryTest,2020.2.10,MacIntel,60,,,,,,64,3.8163,1,,,,,,8 x 8 =,tie,largeProd,64,0,16,16,29,1,,,,,,,,,,,,,,,,,,,,,,,,,,,,,,,,,,,,,,,,,,,,,,,,,,,,,,,,,,,,,,,,,,,,,,,,,,,,,,,,,,,,,,,,,,,,,,,,,,,,,,,,,,
,,,,,,,,,856,001,ABC,2021-09-13_17h46.49.820,workingMemoryTest,2020.2.10,MacIntel,60,,,,,,20,1.8495,1,,,,,,5 x 4 =,largeFirst,smallProd,20,0,17,17,5,1,,,,,,,,,,,,,,,,,,,,,,,,,,,,,,,,,,,,,,,,,,,,,,,,,,,,,,,,,,,,,,,,,,,,,,,,,,,,,,,,,,,,,,,,,,,,,,,,,,,,,,,,,,
,,,,,,,,,856,001,ABC,2021-09-13_17h46.49.820,workingMemoryTest,2020.2.10,MacIntel,60,,,,,,72,4.5822,1,,,,,,9 x 8 =,largeFirst,largeProd,72,0,18,18,12,1,,,,,,,,,,,,,,,,,,,,,,,,,,,,,,,,,,,,,,,,,,,,,,,,,,,,,,,,,,,,,,,,,,,,,,,,,,,,,,,,,,,,,,,,,,,,,,,,,,,,,,,,,,
,,,,,,,,,856,001,ABC,2021-09-13_17h46.49.820,workingMemoryTest,2020.2.10,MacIntel,60,,,,,,56,2.1329,1,,,,,,8 x 7 =,largeFirst,largeProd,56,0,19,19,10,1,,,,,,,,,,,,,,,,,,,,,,,,,,,,,,,,,,,,,,,,,,,,,,,,,,,,,,,,,,,,,,,,,,,,,,,,,,,,,,,,,,,,,,,,,,,,,,,,,,,,,,,,,,
,,,,,,,,,856,001,ABC,2021-09-13_17h46.49.820,workingMemoryTest,2020.2.10,MacIntel,60,,,,,,12,1.7499,1,,,,,,6 x 2 =,largeFirst,smallProd,12,0,20,20,2,1,,,,,,,,,,,,,,,,,,,,,,,,,,,,,,,,,,,,,,,,,,,,,,,,,,,,,,,,,,,,,,,,,,,,,,,,,,,,,,,,,,,,,,,,,,,,,,,,,,,,,,,,,,
,,,,,,,,,856,001,ABC,2021-09-13_17h46.49.820,workingMemoryTest,2020.2.10,MacIntel,60,,,,,,30,1.899,1,,,,,,5 x 6 =,smallFirst,largeProd,30,0,21,21,27,1,,,,,,,,,,,,,,,,,,,,,,,,,,,,,,,,,,,,,,,,,,,,,,,,,,,,,,,,,,,,,,,,,,,,,,,,,,,,,,,,,,,,,,,,,,,,,,,,,,,,,,,,,,
,,,,,,,,,856,001,ABC,2021-09-13_17h46.49.820,workingMemoryTest,2020.2.10,MacIntel,60,,,,,,45,2.9004,1,,,,,,5 x 9 =,smallFirst,largeProd,45,0,22,22,21,1,,,,,,,,,,,,,,,,,,,,,,,,,,,,,,,,,,,,,,,,,,,,,,,,,,,,,,,,,,,,,,,,,,,,,,,,,,,,,,,,,,,,,,,,,,,,,,,,,,,,,,,,,,
,,,,,,,,,856,001,ABC,2021-09-13_17h46.49.820,workingMemoryTest,2020.2.10,MacIntel,60,,,,,,8,1.7334,1,,,,,,4 x 2 =,largeFirst,smallProd,8,0,23,23,0,1,,,,,,,,,,,,,,,,,,,,,,,,,,,,,,,,,,,,,,,,,,,,,,,,,,,,,,,,,,,,,,,,,,,,,,,,,,,,,,,,,,,,,,,,,,,,,,,,,,,,,,,,,,
,,,,,,,,,856,001,ABC,2021-09-13_17h46.49.820,workingMemoryTest,2020.2.10,MacIntel,60,,,,,,12,2.7665,1,,,,,,3 x 4 =,smallFirst,smallProd,12,0,24,24,15,1,,,,,,,,,,,,,,,,,,,,,,,,,,,,,,,,,,,,,,,,,,,,,,,,,,,,,,,,,,,,,,,,,,,,,,,,,,,,,,,,,,,,,,,,,,,,,,,,,,,,,,,,,,
,,,,,,,,,856,001,ABC,2021-09-13_17h46.49.820,workingMemoryTest,2020.2.10,MacIntel,60,,,,,,35,2.0326,1,,,,,,5 x 7 =,smallFirst,largeProd,35,0,25,25,25,1,,,,,,,,,,,,,,,,,,,,,,,,,,,,,,,,,,,,,,,,,,,,,,,,,,,,,,,,,,,,,,,,,,,,,,,,,,,,,,,,,,,,,,,,,,,,,,,,,,,,,,,,,,
,,,,,,,,,856,001,ABC,2021-09-13_17h46.49.820,workingMemoryTest,2020.2.10,MacIntel,60,,,,,,21,5.5165,0,,,,,,3 x 9 =,smallFirst,largeProd,27,0,26,26,24,1,,,,,,,,,,,,,,,,,,,,,,,,,,,,,,,,,,,,,,,,,,,,,,,,,,,,,,,,,,,,,,,,,,,,,,,,,,,,,,,,,,,,,,,,,,,,,,,,,,,,,,,,,,
,,,,,,,,,856,001,ABC,2021-09-13_17h46.49.820,workingMemoryTest,2020.2.10,MacIntel,60,,,,,,24,2.1164,0,,,,,,9 x 4 =,largeFirst,largeProd,36,0,27,27,8,1,,,,,,,,,,,,,,,,,,,,,,,,,,,,,,,,,,,,,,,,,,,,,,,,,,,,,,,,,,,,,,,,,,,,,,,,,,,,,,,,,,,,,,,,,,,,,,,,,,,,,,,,,,
,,,,,,,,,856,001,ABC,2021-09-13_17h46.49.820,workingMemoryTest,2020.2.10,MacIntel,60,,,,,,18,4.1668,1,,,,,,3 x 6 =,smallFirst,smallProd,18,0,28,28,17,1,,,,,,,,,,,,,,,,,,,,,,,,,,,,,,,,,,,,,,,,,,,,,,,,,,,,,,,,,,,,,,,,,,,,,,,,,,,,,,,,,,,,,,,,,,,,,,,,,,,,,,,,,,
,,,,,,,,,856,001,ABC,2021-09-13_17h46.49.820,workingMemoryTest,2020.2.10,MacIntel,60,,,,,,18,1.6668,1,,,,,,9 x 2 =,largeFirst,smallProd,18,0,29,29,6,1,,,,,,,,,,,,,,,,,,,,,,,,,,,,,,,,,,,,,,,,,,,,,,,,,,,,,,,,,,,,,,,,,,,,,,,,,,,,,,,,,,,,,,,,,,,,,,,,,,,,,,,,,,
,,,,,,,,,856,001,ABC,2021-09-13_17h46.49.820,workingMemoryTest,2020.2.10,MacIntel,60,,,,,,,,,,,,,,,,,,,,,,,0,0,0,1,1,multiplTwo.xlsx,,,,,,,,,,,,,,,,,,,,,,,,,,,,,,,,,,,,,,,,,,,,,,,,,,,,,,,,,,,,,,,,,,,,,,,,,,,,,,,,,,,,,,,,,,,,,,,,,,,,
,,,,,,,,,856,001,ABC,2021-09-13_17h46.49.820,workingMemoryTest,2020.2.10,MacIntel,60,,,,,,18,5.0679,1,,,,,,6 x 3 =,largeFirst,smallProd,18,0,0,0,3,1,,,,,,,,,,,,,,,,,,,,,,,,,,,,,,,,,,,,,,,,,,,,,,,,,,,,,,,,,,,,,,,,,,,,,,,,,,,,,,,,,,,,,,,,,,,,,,,,,,,,,,,,,,
,,,,,,,,,856,001,ABC,2021-09-13_17h46.49.820,workingMemoryTest,2020.2.10,MacIntel,60,,,,,,42,2.2005,1,,,,,,7 x 6 =,largeFirst,largeProd,42,0,1,1,10,1,,,,,,,,,,,,,,,,,,,,,,,,,,,,,,,,,,,,,,,,,,,,,,,,,,,,,,,,,,,,,,,,,,,,,,,,,,,,,,,,,,,,,,,,,,,,,,,,,,,,,,,,,,
,,,,,,,,,856,001,ABC,2021-09-13_17h46.49.820,workingMemoryTest,2020.2.10,MacIntel,60,,,,,,21,2.6987,1,,,,,,3 x 7 =,smallFirst,smallProd,21,0,2,2,14,1,,,,,,,,,,,,,,,,,,,,,,,,,,,,,,,,,,,,,,,,,,,,,,,,,,,,,,,,,,,,,,,,,,,,,,,,,,,,,,,,,,,,,,,,,,,,,,,,,,,,,,,,,,
,,,,,,,,,856,001,ABC,2021-09-13_17h46.49.820,workingMemoryTest,2020.2.10,MacIntel,60,,,,,,24,1.483,1,,,,,,6 x 4 =,largeFirst,smallProd,24,0,3,3,6,1,,,,,,,,,,,,,,,,,,,,,,,,,,,,,,,,,,,,,,,,,,,,,,,,,,,,,,,,,,,,,,,,,,,,,,,,,,,,,,,,,,,,,,,,,,,,,,,,,,,,,,,,,,
,,,,,,,,,856,001,ABC,2021-09-13_17h46.49.820,workingMemoryTest,2020.2.10,MacIntel,60,,,,,,54,8.5993,1,,,,,,6 x 9 =,smallFirst,largeProd,54,0,4,4,22,1,,,,,,,,,,,,,,,,,,,,,,,,,,,,,,,,,,,,,,,,,,,,,,,,,,,,,,,,,,,,,,,,,,,,,,,,,,,,,,,,,,,,,,,,,,,,,,,,,,,,,,,,,,
,,,,,,,,,856,001,ABC,2021-09-13_17h46.49.820,workingMemoryTest,2020.2.10,MacIntel,60,,,,,,28,6.0989,1,,,,,,4 x 7 =,smallFirst,largeProd,28,0,5,5,25,1,,,,,,,,,,,,,,,,,,,,,,,,,,,,,,,,,,,,,,,,,,,,,,,,,,,,,,,,,,,,,,,,,,,,,,,,,,,,,,,,,,,,,,,,,,,,,,,,,,,,,,,,,,
,,,,,,,,,856,001,ABC,2021-09-13_17h46.49.820,workingMemoryTest,2020.2.10,MacIntel,60,,,,,,12,1.3671,1,,,,,,2 x 6 =,smallFirst,smallProd,12,0,6,6,20,1,,,,,,,,,,,,,,,,,,,,,,,,,,,,,,,,,,,,,,,,,,,,,,,,,,,,,,,,,,,,,,,,,,,,,,,,,,,,,,,,,,,,,,,,,,,,,,,,,,,,,,,,,,
,,,,,,,,,856,001,ABC,2021-09-13_17h46.49.820,workingMemoryTest,2020.2.10,MacIntel,60,,,,,,56,2.4172,1,,,,,,7 x 8 =,smallFirst,largeProd,56,0,7,7,23,1,,,,,,,,,,,,,,,,,,,,,,,,,,,,,,,,,,,,,,,,,,,,,,,,,,,,,,,,,,,,,,,,,,,,,,,,,,,,,,,,,,,,,,,,,,,,,,,,,,,,,,,,,,
,,,,,,,,,856,001,ABC,2021-09-13_17h46.49.820,workingMemoryTest,2020.2.10,MacIntel,60,,,,,,18,1.8986,1,,,,,,2 x 9 =,smallFirst,smallProd,18,0,8,8,18,1,,,,,,,,,,,,,,,,,,,,,,,,,,,,,,,,,,,,,,,,,,,,,,,,,,,,,,,,,,,,,,,,,,,,,,,,,,,,,,,,,,,,,,,,,,,,,,,,,,,,,,,,,,
,,,,,,,,,856,001,ABC,2021-09-13_17h46.49.820,workingMemoryTest,2020.2.10,MacIntel,60,,,,,,48,3.6324,1,,,,,,6 x 8 =,smallFirst,largeProd,48,0,9,9,21,1,,,,,,,,,,,,,,,,,,,,,,,,,,,,,,,,,,,,,,,,,,,,,,,,,,,,,,,,,,,,,,,,,,,,,,,,,,,,,,,,,,,,,,,,,,,,,,,,,,,,,,,,,,
,,,,,,,,,856,001,ABC,2021-09-13_17h46.49.820,workingMemoryTest,2020.2.10,MacIntel,60,,,,,,16,3.4836,1,,,,,,8 x 2 =,largeFirst,smallProd,16,0,10,10,5,1,,,,,,,,,,,,,,,,,,,,,,,,,,,,,,,,,,,,,,,,,,,,,,,,,,,,,,,,,,,,,,,,,,,,,,,,,,,,,,,,,,,,,,,,,,,,,,,,,,,,,,,,,,
,,,,,,,,,856,001,ABC,2021-09-13_17h46.49.820,workingMemoryTest,2020.2.10,MacIntel,60,,,,,,9,1.5819,1,,,,,,3 x 3 =,tie,smallProd,9,0,11,11,28,1,,,,,,,,,,,,,,,,,,,,,,,,,,,,,,,,,,,,,,,,,,,,,,,,,,,,,,,,,,,,,,,,,,,,,,,,,,,,,,,,,,,,,,,,,,,,,,,,,,,,,,,,,,
,,,,,,,,,856,001,ABC,2021-09-13_17h46.49.820,workingMemoryTest,2020.2.10,MacIntel,60,,,,,,32,1.716,1,,,,,,8 x 4 =,largeFirst,largeProd,32,0,12,12,8,1,,,,,,,,,,,,,,,,,,,,,,,,,,,,,,,,,,,,,,,,,,,,,,,,,,,,,,,,,,,,,,,,,,,,,,,,,,,,,,,,,,,,,,,,,,,,,,,,,,,,,,,,,,
,,,,,,,,,856,001,ABC,2021-09-13_17h46.49.820,workingMemoryTest,2020.2.10,MacIntel,60,,,,,,14,1.5165,1,,,,,,7 x 2 =,largeFirst,smallProd,14,0,13,13,4,1,,,,,,,,,,,,,,,,,,,,,,,,,,,,,,,,,,,,,,,,,,,,,,,,,,,,,,,,,,,,,,,,,,,,,,,,,,,,,,,,,,,,,,,,,,,,,,,,,,,,,,,,,,
,,,,,,,,,856,001,ABC,2021-09-13_17h46.49.820,workingMemoryTest,2020.2.10,MacIntel,60,,,,,,30,2.6677,1,,,,,,6 x 5 =,largeFirst,largeProd,30,0,14,14,13,1,,,,,,,,,,,,,,,,,,,,,,,,,,,,,,,,,,,,,,,,,,,,,,,,,,,,,,,,,,,,,,,,,,,,,,,,,,,,,,,,,,,,,,,,,,,,,,,,,,,,,,,,,,
,,,,,,,,,856,001,ABC,2021-09-13_17h46.49.820,workingMemoryTest,2020.2.10,MacIntel,60,,,,,,8,1.5343,1,,,,,,2 x 4 =,smallFirst,smallProd,8,0,15,15,17,1,,,,,,,,,,,,,,,,,,,,,,,,,,,,,,,,,,,,,,,,,,,,,,,,,,,,,,,,,,,,,,,,,,,,,,,,,,,,,,,,,,,,,,,,,,,,,,,,,,,,,,,,,,
,,,,,,,,,856,001,ABC,2021-09-13_17h46.49.820,workingMemoryTest,2020.2.10,MacIntel,60,,,,,,10,1.5163,1,,,,,,5 x 2 =,largeFirst,smallProd,10,0,16,16,2,1,,,,,,,,,,,,,,,,,,,,,,,,,,,,,,,,,,,,,,,,,,,,,,,,,,,,,,,,,,,,,,,,,,,,,,,,,,,,,,,,,,,,,,,,,,,,,,,,,,,,,,,,,,
,,,,,,,,,856,001,ABC,2021-09-13_17h46.49.820,workingMemoryTest,2020.2.10,MacIntel,60,,,,,,40,2.3661,1,,,,,,5 x 8 =,smallFirst,largeProd,40,0,17,17,27,1,,,,,,,,,,,,,,,,,,,,,,,,,,,,,,,,,,,,,,,,,,,,,,,,,,,,,,,,,,,,,,,,,,,,,,,,,,,,,,,,,,,,,,,,,,,,,,,,,,,,,,,,,,
,,,,,,,,,856,001,ABC,2021-09-13_17h46.49.820,workingMemoryTest,2020.2.10,MacIntel,60,,,,,,45,2.8166,1,,,,,,9 x 5 =,largeFirst,largeProd,45,0,18,18,9,1,,,,,,,,,,,,,,,,,,,,,,,,,,,,,,,,,,,,,,,,,,,,,,,,,,,,,,,,,,,,,,,,,,,,,,,,,,,,,,,,,,,,,,,,,,,,,,,,,,,,,,,,,,
,,,,,,,,,856,001,ABC,2021-09-13_17h46.49.820,workingMemoryTest,2020.2.10,MacIntel,60,,,,,,24,1.8002,1,,,,,,3 x 8 =,smallFirst,smallProd,24,0,19,19,15,1,,,,,,,,,,,,,,,,,,,,,,,,,,,,,,,,,,,,,,,,,,,,,,,,,,,,,,,,,,,,,,,,,,,,,,,,,,,,,,,,,,,,,,,,,,,,,,,,,,,,,,,,,,
,,,,,,,,,856,001,ABC,2021-09-13_17h46.49.820,workingMemoryTest,2020.2.10,MacIntel,60,,,,,,72,3.1,1,,,,,,8 x 9 =,smallFirst,largeProd,72,0,20,20,24,1,,,,,,,,,,,,,,,,,,,,,,,,,,,,,,,,,,,,,,,,,,,,,,,,,,,,,,,,,,,,,,,,,,,,,,,,,,,,,,,,,,,,,,,,,,,,,,,,,,,,,,,,,,
,,,,,,,,,856,001,ABC,2021-09-13_17h46.49.820,workingMemoryTest,2020.2.10,MacIntel,60,,,,,,15,2.1667,1,,,,,,3 x 5 =,smallFirst,smallProd,15,0,21,21,19,1,,,,,,,,,,,,,,,,,,,,,,,,,,,,,,,,,,,,,,,,,,,,,,,,,,,,,,,,,,,,,,,,,,,,,,,,,,,,,,,,,,,,,,,,,,,,,,,,,,,,,,,,,,
,,,,,,,,,856,001,ABC,2021-09-13_17h46.49.820,workingMemoryTest,2020.2.10,MacIntel,60,,,,,,49,1.9999,1,,,,,,7 x 7 =,tie,largeProd,49,0,22,22,29,1,,,,,,,,,,,,,,,,,,,,,,,,,,,,,,,,,,,,,,,,,,,,,,,,,,,,,,,,,,,,,,,,,,,,,,,,,,,,,,,,,,,,,,,,,,,,,,,,,,,,,,,,,,
,,,,,,,,,856,001,ABC,2021-09-13_17h46.49.820,workingMemoryTest,2020.2.10,MacIntel,60,,,,,,6,1.917,1,,,,,,3 x 2 =,largeFirst,smallProd,6,0,23,23,0,1,,,,,,,,,,,,,,,,,,,,,,,,,,,,,,,,,,,,,,,,,,,,,,,,,,,,,,,,,,,,,,,,,,,,,,,,,,,,,,,,,,,,,,,,,,,,,,,,,,,,,,,,,,
,,,,,,,,,856,001,ABC,2021-09-13_17h46.49.820,workingMemoryTest,2020.2.10,MacIntel,60,,,,,,20,2.5006,1,,,,,,4 x 5 =,smallFirst,smallProd,20,0,24,24,16,1,,,,,,,,,,,,,,,,,,,,,,,,,,,,,,,,,,,,,,,,,,,,,,,,,,,,,,,,,,,,,,,,,,,,,,,,,,,,,,,,,,,,,,,,,,,,,,,,,,,,,,,,,,
,,,,,,,,,856,001,ABC,2021-09-13_17h46.49.820,workingMemoryTest,2020.2.10,MacIntel,60,,,,,,12,1.5998,1,,,,,,4 x 3 =,largeFirst,smallProd,12,0,25,25,1,1,,,,,,,,,,,,,,,,,,,,,,,,,,,,,,,,,,,,,,,,,,,,,,,,,,,,,,,,,,,,,,,,,,,,,,,,,,,,,,,,,,,,,,,,,,,,,,,,,,,,,,,,,,
,,,,,,,,,856,001,ABC,2021-09-13_17h46.49.820,workingMemoryTest,2020.2.10,MacIntel,60,,,,,,63,2.582,1,,,,,,9 x 7 =,largeFirst,largeProd,63,0,26,26,12,1,,,,,,,,,,,,,,,,,,,,,,,,,,,,,,,,,,,,,,,,,,,,,,,,,,,,,,,,,,,,,,,,,,,,,,,,,,,,,,,,,,,,,,,,,,,,,,,,,,,,,,,,,,
,,,,,,,,,856,001,ABC,2021-09-13_17h46.49.820,workingMemoryTest,2020.2.10,MacIntel,60,,,,,,36,2.5502,1,,,,,,4 x 9 =,smallFirst,largeProd,36,0,27,27,26,1,,,,,,,,,,,,,,,,,,,,,,,,,,,,,,,,,,,,,,,,,,,,,,,,,,,,,,,,,,,,,,,,,,,,,,,,,,,,,,,,,,,,,,,,,,,,,,,,,,,,,,,,,,
,,,,,,,,,856,001,ABC,2021-09-13_17h46.49.820,workingMemoryTest,2020.2.10,MacIntel,60,,,,,,27,2.3823,1,,,,,,9 x 3 =,largeFirst,largeProd,27,0,28,28,7,1,,,,,,,,,,,,,,,,,,,,,,,,,,,,,,,,,,,,,,,,,,,,,,,,,,,,,,,,,,,,,,,,,,,,,,,,,,,,,,,,,,,,,,,,,,,,,,,,,,,,,,,,,,
,,,,,,,,,856,001,ABC,2021-09-13_17h46.49.820,workingMemoryTest,2020.2.10,MacIntel,60,,,,,,35,2.2155,1,,,,,,7 x 5 =,largeFirst,largeProd,35,0,29,29,11,1,,,,,,,,,,,,,,,,,,,,,,,,,,,,,,,,,,,,,,,,,,,,,,,,,,,,,,,,,,,,,,,,,,,,,,,,,,,,,,,,,,,,,,,,,,,,,,,,,,,,,,,,,,
,,,,,,,,,856,001,ABC,2021-09-13_17h46.49.820,workingMemoryTest,2020.2.10,MacIntel,60,,,,,,,,,,,,,,,,,,,,,,,0,1,1,0,1,multiplOne.xlsx,,,,,,,,,,,,,,,,,,,,,,,,,,,,,,,,,,,,,,,,,,,,,,,,,,,,,,,,,,,,,,,,,,,,,,,,,,,,,,,,,,,,,,,,,,,,,,,,,,,,
,,,,,,,,,856,001,ABC,2021-09-13_17h46.49.820,workingMemoryTest,2020.2.10,MacIntel,60,,,,,,,,,,,,,,,,,,,,,,,,,,,,,0,0,0,0,1,,,,,,,,,,,,,,,,,,,,,,,,,,,,,,,,,,,,,,,,,,,,,,,,,,,,,,,,,,,,,,,,,,,,,,,,,,,,,,,,,,,,,,,,,,,,,,,
,,,,,,,,,856,001,ABC,2021-09-13_17h46.49.820,workingMemoryTest,2020.2.10,MacIntel,60,,,,,,,,,,,,,,,,,,,,,,,,,,,,,,,,,,0,0,0,0,1,1,0,0,,,,,,,,,,,,,,,,,,,,,,,,,,,,,,,,,,,,,,,,,,,,,,,,,,,,,,,,,,,,,,,,,,,,,,,,,,,,,,,,,,,,,,,
,,,,,,,,,856,001,ABC,2021-09-13_17h46.49.820,workingMemoryTest,2020.2.10,MacIntel,60,,,,,,,,,,,,,,,,,,,,,,,,,,,,,,,,,,,,,,,,,,1,2.5648,0,0,0,0,0,1,practice,123,Audio/123.mp3,,,,,,,,,,,,,,,,,,,,,,,,,,,,,,,,,,,,,,,,,,,,,,,,,,,,,,,,,,,,,,,,,,,,,,,,,,,,
,,,,,,,,,856,001,ABC,2021-09-13_17h46.49.820,workingMemoryTest,2020.2.10,MacIntel,60,,,,,,,,,,,,,,,,,,,,,,,,,,,,,,,,,,,,,,,,,,321,1.851,1,0,1,1,1,1,practice,321,Audio/321.mp3,,,,,,,,,,,,,,,,,,,,,,,,,,,,,,,,,,,,,,,,,,,,,,,,,,,,,,,,,,,,,,,,,,,,,,,,,,,,
,,,,,,,,,856,001,ABC,2021-09-13_17h46.49.820,workingMemoryTest,2020.2.10,MacIntel,60,,,,,,,,,,,,,,,,,,,,,,,,,,,,,,,,,,,,,,,,,,911,1.8669,1,0,2,2,2,1,practice,911,Audio/911.mp3,,,,,,,,,,,,,,,,,,,,,,,,,,,,,,,,,,,,,,,,,,,,,,,,,,,,,,,,,,,,,,,,,,,,,,,,,,,,
,,,,,,,,,856,001,ABC,2021-09-13_17h46.49.820,workingMemoryTest,2020.2.10,MacIntel,60,,,,,,,,,,,,,,,,,,,,,,,,,,,,,,,,,,,,,,,,,,,,,,,,,,,46,Audio/46.mp3,46,1.5489,1,0,0,0,0,1,2,,,,,,,,,,,,,,,,,,,,,,,,,,,,,,,,,,,,,,,,,,,,,,,,,,,,,,,,,,,,,,,,,,,
,,,,,,,,,856,001,ABC,2021-09-13_17h46.49.820,workingMemoryTest,2020.2.10,MacIntel,60,,,,,,,,,,,,,,,,,,,,,,,,,,,,,,,,,,,,,,,,,,,,,,,,,,,,,,,,,,,,,,0,0,0,0,1,twoAudio.xlsx,,,,,,,,,,,,,,,,,,,,,,,,,,,,,,,,,,,,,,,,,,,,,,,,,,,,,,,,,,,,,
,,,,,,,,,856,001,ABC,2021-09-13_17h46.49.820,workingMemoryTest,2020.2.10,MacIntel,60,,,,,,,,,,,,,,,,,,,,,,,,,,,,,,,,,,,,,,,,,,,,,,,,,,,157,Audio/157.mp3,157,1.95,1,0,0,0,0,1,3,,,,,,,,,,,,,,,,,,,,,,,,,,,,,,,,,,,,,,,,,,,,,,,,,,,,,,,,,,,,,,,,,,,
,,,,,,,,,856,001,ABC,2021-09-13_17h46.49.820,workingMemoryTest,2020.2.10,MacIntel,60,,,,,,,,,,,,,,,,,,,,,,,,,,,,,,,,,,,,,,,,,,,,,,,,,,,,,,,,,,,,,,0,1,1,1,1,threeAudio.xlsx,,,,,,,,,,,,,,,,,,,,,,,,,,,,,,,,,,,,,,,,,,,,,,,,,,,,,,,,,,,,,
,,,,,,,,,856,001,ABC,2021-09-13_17h46.49.820,workingMemoryTest,2020.2.10,MacIntel,60,,,,,,,,,,,,,,,,,,,,,,,,,,,,,,,,,,,,,,,,,,,,,,,,,,,6352,Audio/6352.mp3,6352,2.6667,1,0,0,0,0,1,4,,,,,,,,,,,,,,,,,,,,,,,,,,,,,,,,,,,,,,,,,,,,,,,,,,,,,,,,,,,,,,,,,,,
,,,,,,,,,856,001,ABC,2021-09-13_17h46.49.820,workingMemoryTest,2020.2.10,MacIntel,60,,,,,,,,,,,,,,,,,,,,,,,,,,,,,,,,,,,,,,,,,,,,,,,,,,,,,,,,,,,,,,0,2,2,2,1,fourAudio.xlsx,,,,,,,,,,,,,,,,,,,,,,,,,,,,,,,,,,,,,,,,,,,,,,,,,,,,,,,,,,,,,
,,,,,,,,,856,001,ABC,2021-09-13_17h46.49.820,workingMemoryTest,2020.2.10,MacIntel,60,,,,,,,,,,,,,,,,,,,,,,,,,,,,,,,,,,,,,,,,,,,,,,,,,,,59281,Audio/59281.mp3,59281,2.5819,1,0,0,0,0,1,5,,,,,,,,,,,,,,,,,,,,,,,,,,,,,,,,,,,,,,,,,,,,,,,,,,,,,,,,,,,,,,,,,,,
,,,,,,,,,856,001,ABC,2021-09-13_17h46.49.820,workingMemoryTest,2020.2.10,MacIntel,60,,,,,,,,,,,,,,,,,,,,,,,,,,,,,,,,,,,,,,,,,,,,,,,,,,,,,,,,,,,,,,0,3,3,3,1,fiveAudio.xlsx,,,,,,,,,,,,,,,,,,,,,,,,,,,,,,,,,,,,,,,,,,,,,,,,,,,,,,,,,,,,,
,,,,,,,,,856,001,ABC,2021-09-13_17h46.49.820,workingMemoryTest,2020.2.10,MacIntel,60,,,,,,,,,,,,,,,,,,,,,,,,,,,,,,,,,,,,,,,,,,,,,,,,,,,396172,Audio/396172.mp3,396172,3.4498,1,0,0,0,0,1,6,,,,,,,,,,,,,,,,,,,,,,,,,,,,,,,,,,,,,,,,,,,,,,,,,,,,,,,,,,,,,,,,,,,
,,,,,,,,,856,001,ABC,2021-09-13_17h46.49.820,workingMemoryTest,2020.2.10,MacIntel,60,,,,,,,,,,,,,,,,,,,,,,,,,,,,,,,,,,,,,,,,,,,,,,,,,,,,,,,,,,,,,,0,4,4,4,1,sixAudio.xlsx,,,,,,,,,,,,,,,,,,,,,,,,,,,,,,,,,,,,,,,,,,,,,,,,,,,,,,,,,,,,,
,,,,,,,,,856,001,ABC,2021-09-13_17h46.49.820,workingMemoryTest,2020.2.10,MacIntel,60,,,,,,,,,,,,,,,,,,,,,,,,,,,,,,,,,,,,,,,,,,,,,,,,,,,8241973,Audio/8241973.mp3,8241973,4.2506,1,0,0,0,0,1,7,,,,,,,,,,,,,,,,,,,,,,,,,,,,,,,,,,,,,,,,,,,,,,,,,,,,,,,,,,,,,,,,,,,
,,,,,,,,,856,001,ABC,2021-09-13_17h46.49.820,workingMemoryTest,2020.2.10,MacIntel,60,,,,,,,,,,,,,,,,,,,,,,,,,,,,,,,,,,,,,,,,,,,,,,,,,,,,,,,,,,,,,,0,5,5,5,1,sevenAudio.xlsx,,,,,,,,,,,,,,,,,,,,,,,,,,,,,,,,,,,,,,,,,,,,,,,,,,,,,,,,,,,,,
,,,,,,,,,856,001,ABC,2021-09-13_17h46.49.820,workingMemoryTest,2020.2.10,MacIntel,60,,,,,,,,,,,,,,,,,,,,,,,,,,,,,,,,,,,,,,,,,,,,,,,,,,,53827164,Audio/53827164.mp3,53827164,9.4497,1,0,0,0,0,1,8,,,,,,,,,,,,,,,,,,,,,,,,,,,,,,,,,,,,,,,,,,,,,,,,,,,,,,,,,,,,,,,,,,,
,,,,,,,,,856,001,ABC,2021-09-13_17h46.49.820,workingMemoryTest,2020.2.10,MacIntel,60,,,,,,,,,,,,,,,,,,,,,,,,,,,,,,,,,,,,,,,,,,,,,,,,,,,,,,,,,,,,,,0,6,6,6,1,eightAudio.xlsx,,,,,,,,,,,,,,,,,,,,,,,,,,,,,,,,,,,,,,,,,,,,,,,,,,,,,,,,,,,,,
,,,,,,,,,856,001,ABC,2021-09-13_17h46.49.820,workingMemoryTest,2020.2.10,MacIntel,60,,,,,,,,,,,,,,,,,,,,,,,,,,,,,,,,,,,,,,,,,,,,,,,,,,,682594316,Audio/682594316.mp3,682594316,10.0336,1,0,0,0,0,1,9,,,,,,,,,,,,,,,,,,,,,,,,,,,,,,,,,,,,,,,,,,,,,,,,,,,,,,,,,,,,,,,,,,,
,,,,,,,,,856,001,ABC,2021-09-13_17h46.49.820,workingMemoryTest,2020.2.10,MacIntel,60,,,,,,,,,,,,,,,,,,,,,,,,,,,,,,,,,,,,,,,,,,,,,,,,,,,,,,,,,,,,,,0,7,7,7,1,nineAudio.xlsx,,,,,,,,,,,,,,,,,,,,,,,,,,,,,,,,,,,,,,,,,,,,,,,,,,,,,,,,,,,,,
,,,,,,,,,856,001,ABC,2021-09-13_17h46.49.820,workingMemoryTest,2020.2.10,MacIntel,60,,,,,,,,,,,,,,,,,,,,,,,,,,,,,,,,,,,,,,,,,,,,,,,,,,,,,,,,,,,,,,,,,,,,97,2.9823,1,0,0,0,0,1,2,97,Audio/97.mp3,,,,,,,,,,,,,,,,,,,,,,,,,,,,,,,,,,,,,,,,,,,,,,,,,,
,,,,,,,,,856,001,ABC,2021-09-13_17h46.49.820,workingMemoryTest,2020.2.10,MacIntel,60,,,,,,,,,,,,,,,,,,,,,,,,,,,,,,,,,,,,,,,,,,,,,,,,,,,,,,,,,,,,,,,,,,,,,,,,,,,,,,,0,0,0,0,1,twoWAIS.xlsx,,,,,,,,,,,,,,,,,,,,,,,,,,,,,,,,,,,,,,,,,,,,
,,,,,,,,,856,001,ABC,2021-09-13_17h46.49.820,workingMemoryTest,2020.2.10,MacIntel,60,,,,,,,,,,,,,,,,,,,,,,,,,,,,,,,,,,,,,,,,,,,,,,,,,,,,,,,,,,,,,,,,,,,,582,3.7506,1,0,0,0,0,1,3,582,Audio/582.mp3,,,,,,,,,,,,,,,,,,,,,,,,,,,,,,,,,,,,,,,,,,,,,,,,,,
,,,,,,,,,856,001,ABC,2021-09-13_17h46.49.820,workingMemoryTest,2020.2.10,MacIntel,60,,,,,,,,,,,,,,,,,,,,,,,,,,,,,,,,,,,,,,,,,,,,,,,,,,,,,,,,,,,,,,,,,,,,,,,,,,,,,,,0,1,1,1,1,threeWAIS.xlsx,,,,,,,,,,,,,,,,,,,,,,,,,,,,,,,,,,,,,,,,,,,,
,,,,,,,,,856,001,ABC,2021-09-13_17h46.49.820,workingMemoryTest,2020.2.10,MacIntel,60,,,,,,,,,,,,,,,,,,,,,,,,,,,,,,,,,,,,,,,,,,,,,,,,,,,,,,,,,,,,,,,,,,,,7286,4.015,1,0,0,0,0,1,4,7286,Audio/7286.mp3,,,,,,,,,,,,,,,,,,,,,,,,,,,,,,,,,,,,,,,,,,,,,,,,,,
,,,,,,,,,856,001,ABC,2021-09-13_17h46.49.820,workingMemoryTest,2020.2.10,MacIntel,60,,,,,,,,,,,,,,,,,,,,,,,,,,,,,,,,,,,,,,,,,,,,,,,,,,,,,,,,,,,,,,,,,,,,,,,,,,,,,,,0,2,2,2,1,fourWAIS.xlsx,,,,,,,,,,,,,,,,,,,,,,,,,,,,,,,,,,,,,,,,,,,,
,,,,,,,,,856,001,ABC,2021-09-13_17h46.49.820,workingMemoryTest,2020.2.10,MacIntel,60,,,,,,,,,,,,,,,,,,,,,,,,,,,,,,,,,,,,,,,,,,,,,,,,,,,,,,,,,,,,,,,,,,,,42731,5.5822,1,0,0,0,0,1,5,42731,Audio/42731.mp3,,,,,,,,,,,,,,,,,,,,,,,,,,,,,,,,,,,,,,,,,,,,,,,,,,
,,,,,,,,,856,001,ABC,2021-09-13_17h46.49.820,workingMemoryTest,2020.2.10,MacIntel,60,,,,,,,,,,,,,,,,,,,,,,,,,,,,,,,,,,,,,,,,,,,,,,,,,,,,,,,,,,,,,,,,,,,,,,,,,,,,,,,0,3,3,3,1,fiveWAIS.xlsx,,,,,,,,,,,,,,,,,,,,,,,,,,,,,,,,,,,,,,,,,,,,
,,,,,,,,,856,001,ABC,2021-09-13_17h46.49.820,workingMemoryTest,2020.2.10,MacIntel,60,,,,,,,,,,,,,,,,,,,,,,,,,,,,,,,,,,,,,,,,,,,,,,,,,,,,,,,,,,,,,,,,,,,,392487,10.7824,1,0,0,0,0,1,6,392487,Audio/392487.mp3,,,,,,,,,,,,,,,,,,,,,,,,,,,,,,,,,,,,,,,,,,,,,,,,,,
,,,,,,,,,856,001,ABC,2021-09-13_17h46.49.820,workingMemoryTest,2020.2.10,MacIntel,60,,,,,,,,,,,,,,,,,,,,,,,,,,,,,,,,,,,,,,,,,,,,,,,,,,,,,,,,,,,,,,,,,,,,,,,,,,,,,,,0,4,4,4,1,sixWAIS.xlsx,,,,,,,,,,,,,,,,,,,,,,,,,,,,,,,,,,,,,,,,,,,,
,,,,,,,,,856,001,ABC,2021-09-13_17h46.49.820,workingMemoryTest,2020.2.10,MacIntel,60,,,,,,,,,,,,,,,,,,,,,,,,,,,,,,,,,,,,,,,,,,,,,,,,,,,,,,,,,,,,,,,,,,,,6917428,9.75,1,0,0,0,0,1,7,6917428,Audio/6917428.mp3,,,,,,,,,,,,,,,,,,,,,,,,,,,,,,,,,,,,,,,,,,,,,,,,,,
,,,,,,,,,856,001,ABC,2021-09-13_17h46.49.820,workingMemoryTest,2020.2.10,MacIntel,60,,,,,,,,,,,,,,,,,,,,,,,,,,,,,,,,,,,,,,,,,,,,,,,,,,,,,,,,,,,,,,,,,,,,,,,,,,,,,,,0,5,5,5,1,sevenWAIS.xlsx,,,,,,,,,,,,,,,,,,,,,,,,,,,,,,,,,,,,,,,,,,,,
,,,,,,,,,856,001,ABC,2021-09-13_17h46.49.820,workingMemoryTest,2020.2.10,MacIntel,60,,,,,,,,,,,,,,,,,,,,,,,,,,,,,,,,,,,,,,,,,,,,,,,,,,,,,,,,,,,,,,,,,,,,38296174,9.451,1,0,0,0,0,1,8,38296174,Audio/38296174.mp3,,,,,,,,,,,,,,,,,,,,,,,,,,,,,,,,,,,,,,,,,,,,,,,,,,
,,,,,,,,,856,001,ABC,2021-09-13_17h46.49.820,workingMemoryTest,2020.2.10,MacIntel,60,,,,,,,,,,,,,,,,,,,,,,,,,,,,,,,,,,,,,,,,,,,,,,,,,,,,,,,,,,,,,,,,,,,,,,,,,,,,,,,0,6,6,6,1,eightWAIS.xlsx,,,,,,,,,,,,,,,,,,,,,,,,,,,,,,,,,,,,,,,,,,,,
,,,,,,,,,856,001,ABC,2021-09-13_17h46.49.820,workingMemoryTest,2020.2.10,MacIntel,60,,,,,,,,,,,,,,,,,,,,,,,,,,,,,,,,,,,,,,,,,,,,,,,,,,,,,,,,,,,,,,,,,,,,257863194,13.9167,0,0,0,0,0,1,9,275863194,Audio/275863194.mp3,,,,,,,,,,,,,,,,,,,,,,,,,,,,,,,,,,,,,,,,,,,,,,,,,,
,,,,,,,,,856,001,ABC,2021-09-13_17h46.49.820,workingMemoryTest,2020.2.10,MacIntel,60,,,,,,,,,,,,,,,,,,,,,,,,,,,,,,,,,,,,,,,,,,,,,,,,,,,,,,,,,,,,,,,,,,,,713942658,11.4668,0,0,1,1,1,1,9,713942568,Audio/713942568.mp3,,,,,,,,,,,,,,,,,,,,,,,,,,,,,,,,,,,,,,,,,,,,,,,,,,
,,,,,,,,,856,001,ABC,2021-09-13_17h46.49.820,workingMemoryTest,2020.2.10,MacIntel,60,,,,,,,,,,,,,,,,,,,,,,,,,,,,,,,,,,,,,,,,,,,,,,,,,,,,,,,,,,,,,,,,,,,,,,,,,,,,,,,,,,,,,0,0,0,0,1,,,,,,,,,,,,,,,,,,,,,,,,,,,,,,,,,,,,,,,
,,,,,,,,,856,001,ABC,2021-09-13_17h46.49.820,workingMemoryTest,2020.2.10,MacIntel,60,,,,,,,,,,,,,,,,,,,,,,,,,,,,,,,,,,0,1,1,1,1,0,1,0,,,,,,,,,,,,,,,,,,,,,,,,,,,,,,,,,,,,,,,,,,,,,,,,,,,,,,,,,,,,,,,,,,,,,,,,,,,,,,,,,,,,,,,
,,,,,,,,,856,001,ABC,2021-09-13_17h46.49.820,workingMemoryTest,2020.2.10,MacIntel,60,,,,,,,,,,,,,,,,,,,,,,,,,,,,,,,,,,,,,,,,,,,,,,,,,,,,,,,,,,,,,,,,,,,,,,,,,,,,,,,,,,,,,,,,,,TRUE,0.018252825,-0.344841657,1,0,0,0,0,0,0,1,,3,3,,,,,,,,,,,,,,,,,,,,,,,,,
,,,,,,,,,856,001,ABC,2021-09-13_17h46.49.820,workingMemoryTest,2020.2.10,MacIntel,60,,,,,,,,,,,,,,,,,,,,,,,,,,,,,,,,,,,,,,,,,,,,,,,,,,,,,,,,,,,,,,,,,,,,,,,,,,,,,,,,,,,,,,,,,,TRUE,-0.005780901,-0.323601307,1,0,0,0,1,1,2,1,,3,3,,,,,,,,,,,,,,,,,,,,,,,,,
,,,,,,,,,856,001,ABC,2021-09-13_17h46.49.820,workingMemoryTest,2020.2.10,MacIntel,60,,,,,,,,,,,,,,,,,,,,,,,,,,,,,,,,,,,,,,,,,,,,,,,,,,,,,,,,,,,,,,,,,,,,,,,,,,,,,,,,,,,,,,,,,,TRUE,-0.077181978,-0.34173613,1,0,0,0,2,2,1,1,,3,3,,,,,,,,,,,,,,,,,,,,,,,,,
,,,,,,,,,856,001,ABC,2021-09-13_17h46.49.820,workingMemoryTest,2020.2.10,MacIntel,60,,,,,,,,,,,,,,,,,,,,,,,,,,,,,,,,,,,,,,,,,,,,,,,,,,,,,,,,,,,,,,,,,,,,,,,,,,,,,,,,,,,,,,,,,,,,,,,,,,,,,,2,2,TRUE,-0.014984596,-0.33578125,1,0,0,0,0,0,0,1,2,2,,,,,,,,,,,,
,,,,,,,,,856,001,ABC,2021-09-13_17h46.49.820,workingMemoryTest,2020.2.10,MacIntel,60,,,,,,,,,,,,,,,,,,,,,,,,,,,,,,,,,,,,,,,,,,,,,,,,,,,,,,,,,,,,,,,,,,,,,,,,,,,,,,,,,,,,,,,,,,,,,,,,,,,,,,2,2,TRUE,-0.069743769,-0.363031645,1,0,0,0,1,1,1,1,2,2,,,,,,,,,,,,
,,,,,,,,,856,001,ABC,2021-09-13_17h46.49.820,workingMemoryTest,2020.2.10,MacIntel,60,,,,,,,,,,,,,,,,,,,,,,,,,,,,,,,,,,,,,,,,,,,,,,,,,,,,,,,,,,,,,,,,,,,,,,,,,,,,,,,,,,,,,,,,,,,,,,,,,,,,,,2,2,TRUE,-0.083258464,-0.349095633,1,0,0,0,2,2,2,1,2,2,,,,,,,,,,,,
,,,,,,,,,856,001,ABC,2021-09-13_17h46.49.820,workingMemoryTest,2020.2.10,MacIntel,60,,,,,,,,,,,,,,,,,,,,,,,,,,,,,,,,,,,,,,,,,,,,,,,,,,,,,,,,,,,,,,,,,,,,,,,,,,,,,,,,,,,,,,,,,,,,,,,,,,,,,,,,,,,,,,,,,,,,,0,0,0,0,1,blockTwo.xlsx,Ready for the next set? ,,,,,
,,,,,,,,,856,001,ABC,2021-09-13_17h46.49.820,workingMemoryTest,2020.2.10,MacIntel,60,,,,,,,,,,,,,,,,,,,,,,,,,,,,,,,,,,,,,,,,,,,,,,,,,,,,,,,,,,,,,,,,,,,,,,,,,,,,,,,,,,,,,,,,,,,,,,,,,,,,,,3,3,TRUE,-0.027240223,-0.345430908,1,0,0,0,0,0,0,1,3,2,,,,,,,,,,,,
,,,,,,,,,856,001,ABC,2021-09-13_17h46.49.820,workingMemoryTest,2020.2.10,MacIntel,60,,,,,,,,,,,,,,,,,,,,,,,,,,,,,,,,,,,,,,,,,,,,,,,,,,,,,,,,,,,,,,,,,,,,,,,,,,,,,,,,,,,,,,,,,,,,,,,,,,,,,,3,3,TRUE,0.002085542,-0.34089774,1,0,0,0,1,1,1,1,3,2,,,,,,,,,,,,
,,,,,,,,,856,001,ABC,2021-09-13_17h46.49.820,workingMemoryTest,2020.2.10,MacIntel,60,,,,,,,,,,,,,,,,,,,,,,,,,,,,,,,,,,,,,,,,,,,,,,,,,,,,,,,,,,,,,,,,,,,,,,,,,,,,,,,,,,,,,,,,,,,,,,,,,,,,,,3,3,TRUE,-0.136394392,-0.324452369,1,0,0,0,2,2,2,1,3,2,,,,,,,,,,,,
,,,,,,,,,856,001,ABC,2021-09-13_17h46.49.820,workingMemoryTest,2020.2.10,MacIntel,60,,,,,,,,,,,,,,,,,,,,,,,,,,,,,,,,,,,,,,,,,,,,,,,,,,,,,,,,,,,,,,,,,,,,,,,,,,,,,,,,,,,,,,,,,,,,,,,,,,,,,,,,,,,,,,,,,,,,,0,1,1,1,1,blockThree.xlsx,Ready for the next set? ,,,,,
,,,,,,,,,856,001,ABC,2021-09-13_17h46.49.820,workingMemoryTest,2020.2.10,MacIntel,60,,,,,,,,,,,,,,,,,,,,,,,,,,,,,,,,,,,,,,,,,,,,,,,,,,,,,,,,,,,,,,,,,,,,,,,,,,,,,,,,,,,,,,,,,,,,,,,,,,,,,,3,3,TRUE,-0.078615897,-0.366795654,1,0,0,0,0,0,0,1,4,2,,,,,,,,,,,,
,,,,,,,,,856,001,ABC,2021-09-13_17h46.49.820,workingMemoryTest,2020.2.10,MacIntel,60,,,,,,,,,,,,,,,,,,,,,,,,,,,,,,,,,,,,,,,,,,,,,,,,,,,,,,,,,,,,,,,,,,,,,,,,,,,,,,,,,,,,,,,,,,,,,,,,,,,,,,3,3,TRUE,8.6886E-05,-0.372884115,1,0,0,0,1,1,1,1,4,2,,,,,,,,,,,,
,,,,,,,,,856,001,ABC,2021-09-13_17h46.49.820,workingMemoryTest,2020.2.10,MacIntel,60,,,,,,,,,,,,,,,,,,,,,,,,,,,,,,,,,,,,,,,,,,,,,,,,,,,,,,,,,,,,,,,,,,,,,,,,,,,,,,,,,,,,,,,,,,,,,,,,,,,,,,3,3,TRUE,0.021039225,-0.353440639,1,0,0,0,2,2,2,1,4,2,,,,,,,,,,,,
,,,,,,,,,856,001,ABC,2021-09-13_17h46.49.820,workingMemoryTest,2020.2.10,MacIntel,60,,,,,,,,,,,,,,,,,,,,,,,,,,,,,,,,,,,,,,,,,,,,,,,,,,,,,,,,,,,,,,,,,,,,,,,,,,,,,,,,,,,,,,,,,,,,,,,,,,,,,,,,,,,,,,,,,,,,,0,2,2,2,1,blockFour.xlsx,Ready for the next set? ,,,,,
,,,,,,,,,856,001,ABC,2021-09-13_17h46.49.820,workingMemoryTest,2020.2.10,MacIntel,60,,,,,,,,,,,,,,,,,,,,,,,,,,,,,,,,,,,,,,,,,,,,,,,,,,,,,,,,,,,,,,,,,,,,,,,,,,,,,,,,,,,,,,,,,,,,,,,,,,,,,,4,4,TRUE,-0.075616978,-0.369467657,1,0,0,0,0,0,0,1,5,,,,,,,,,,,,,
,,,,,,,,,856,001,ABC,2021-09-13_17h46.49.820,workingMemoryTest,2020.2.10,MacIntel,60,,,,,,,,,,,,,,,,,,,,,,,,,,,,,,,,,,,,,,,,,,,,,,,,,,,,,,,,,,,,,,,,,,,,,,,,,,,,,,,,,,,,,,,,,,,,,,,,,,,,,,4,4,TRUE,0.000702892,-0.326236282,1,0,0,0,1,1,1,1,5,,,,,,,,,,,,,
,,,,,,,,,856,001,ABC,2021-09-13_17h46.49.820,workingMemoryTest,2020.2.10,MacIntel,60,,,,,,,,,,,,,,,,,,,,,,,,,,,,,,,,,,,,,,,,,,,,,,,,,,,,,,,,,,,,,,,,,,,,,,,,,,,,,,,,,,,,,,,,,,,,,,,,,,,,,,4,4,TRUE,-0.012565162,-0.321327137,1,0,0,0,2,2,2,1,5,,,,,,,,,,,,,
,,,,,,,,,856,001,ABC,2021-09-13_17h46.49.820,workingMemoryTest,2020.2.10,MacIntel,60,,,,,,,,,,,,,,,,,,,,,,,,,,,,,,,,,,,,,,,,,,,,,,,,,,,,,,,,,,,,,,,,,,,,,,,,,,,,,,,,,,,,,,,,,,,,,,,,,,,,,,,,,,,,,,,,,,,,,0,3,3,3,1,blockFive.xlsx,Ready for the next set? ,,,,,
,,,,,,,,,856,001,ABC,2021-09-13_17h46.49.820,workingMemoryTest,2020.2.10,MacIntel,60,,,,,,,,,,,,,,,,,,,,,,,,,,,,,,,,,,,,,,,,,,,,,,,,,,,,,,,,,,,,,,,,,,,,,,,,,,,,,,,,,,,,,,,,,,,,,,,,,,,,,,4,4,TRUE,-0.105089751,-0.332382696,1,0,0,0,0,0,0,1,6,,,,,,,,,,,,,
,,,,,,,,,856,001,ABC,2021-09-13_17h46.49.820,workingMemoryTest,2020.2.10,MacIntel,60,,,,,,,,,,,,,,,,,,,,,,,,,,,,,,,,,,,,,,,,,,,,,,,,,,,,,,,,,,,,,,,,,,,,,,,,,,,,,,,,,,,,,,,,,,,,,,,,,,,,,,4,4,TRUE,-0.015717657,-0.324012974,1,0,0,0,1,1,1,1,6,,,,,,,,,,,,,
,,,,,,,,,856,001,ABC,2021-09-13_17h46.49.820,workingMemoryTest,2020.2.10,MacIntel,60,,,,,,,,,,,,,,,,,,,,,,,,,,,,,,,,,,,,,,,,,,,,,,,,,,,,,,,,,,,,,,,,,,,,,,,,,,,,,,,,,,,,,,,,,,,,,,,,,,,,,,4,4,TRUE,-0.015564488,-0.32225336,1,0,0,0,2,2,2,1,6,,,,,,,,,,,,,
,,,,,,,,,856,001,ABC,2021-09-13_17h46.49.820,workingMemoryTest,2020.2.10,MacIntel,60,,,,,,,,,,,,,,,,,,,,,,,,,,,,,,,,,,,,,,,,,,,,,,,,,,,,,,,,,,,,,,,,,,,,,,,,,,,,,,,,,,,,,,,,,,,,,,,,,,,,,,,,,,,,,,,,,,,,,0,4,4,4,1,blockSix.xlsx,Ready for the next set? ,,,,,
,,,,,,,,,856,001,ABC,2021-09-13_17h46.49.820,workingMemoryTest,2020.2.10,MacIntel,60,,,,,,,,,,,,,,,,,,,,,,,,,,,,,,,,,,,,,,,,,,,,,,,,,,,,,,,,,,,,,,,,,,,,,,,,,,,,,,,,,,,,,,,,,,,,,,,,,,,,,,4,4,TRUE,0.042457392,-0.35144043,1,0,0,0,0,0,0,1,7,,,,,,,,,,,,,
,,,,,,,,,856,001,ABC,2021-09-13_17h46.49.820,workingMemoryTest,2020.2.10,MacIntel,60,,,,,,,,,,,,,,,,,,,,,,,,,,,,,,,,,,,,,,,,,,,,,,,,,,,,,,,,,,,,,,,,,,,,,,,,,,,,,,,,,,,,,,,,,,,,,,,,,,,,,,4,4,FALSE,0.046304234,-0.321757813,1,0,0,0,1,1,1,1,7,,,,,,,,,,,,,
,,,,,,,,,856,001,ABC,2021-09-13_17h46.49.820,workingMemoryTest,2020.2.10,MacIntel,60,,,,,,,,,,,,,,,,,,,,,,,,,,,,,,,,,,,,,,,,,,,,,,,,,,,,,,,,,,,,,,,,,,,,,,,,,,,,,,,,,,,,,,,,,,,,,,,,,,,,,,4,4,TRUE,0.001653588,-0.320140323,1,0,0,0,2,2,2,1,7,,,,,,,,,,,,,
,,,,,,,,,856,001,ABC,2021-09-13_17h46.49.820,workingMemoryTest,2020.2.10,MacIntel,60,,,,,,,,,,,,,,,,,,,,,,,,,,,,,,,,,,,,,,,,,,,,,,,,,,,,,,,,,,,,,,,,,,,,,,,,,,,,,,,,,,,,,,,,,,,,,,,,,,,,,,,,,,,,,,,,,,,,,0,5,5,5,1,blockSeven.xlsx,Ready for the next set? ,,,,,
,,,,,,,,,856,001,ABC,2021-09-13_17h46.49.820,workingMemoryTest,2020.2.10,MacIntel,60,,,,,,,,,,,,,,,,,,,,,,,,,,,,,,,,,,,,,,,,,,,,,,,,,,,,,,,,,,,,,,,,,,,,,,,,,,,,,,,,,,,,,,,,,,,,,,,,,,,,,,4,4,FALSE,-0.069858515,-0.323723784,1,0,0,0,0,0,0,1,8,,,,,,,,,,,,,
,,,,,,,,,856,001,ABC,2021-09-13_17h46.49.820,workingMemoryTest,2020.2.10,MacIntel,60,,,,,,,,,,,,,,,,,,,,,,,,,,,,,,,,,,,,,,,,,,,,,,,,,,,,,,,,,,,,,,,,,,,,,,,,,,,,,,,,,,,,,,,,,,,,,,,,,,,,,,4,4,TRUE,-0.0145763,-0.348404774,1,0,0,0,1,1,1,1,8,,,,,,,,,,,,,
,,,,,,,,,856,001,ABC,2021-09-13_17h46.49.820,workingMemoryTest,2020.2.10,MacIntel,60,,,,,,,,,,,,,,,,,,,,,,,,,,,,,,,,,,,,,,,,,,,,,,,,,,,,,,,,,,,,,,,,,,,,,,,,,,,,,,,,,,,,,,,,,,,,,,,,,,,,,,4,4,FALSE,0.020861468,-0.345524902,1,0,0,0,2,2,2,1,8,,,,,,,,,,,,,
,,,,,,,,,856,001,ABC,2021-09-13_17h46.49.820,workingMemoryTest,2020.2.10,MacIntel,60,,,,,,,,,,,,,,,,,,,,,,,,,,,,,,,,,,,,,,,,,,,,,,,,,,,,,,,,,,,,,,,,,,,,,,,,,,,,,,,,,,,,,,,,,,,,,,,,,,,,,,,,,,,,,,,,,,,,,,,,,,,,0,0,0,0,1
,,,,,,,,,856,001,ABC,2021-09-13_17h46.49.820,workingMemoryTest,2020.2.10,MacIntel,60,,,,,,,,,,,,,,,,,,,,,,,,,,,,,,,,,,0,2,2,2,1,0,0,1,,,,,,,,,,,,,,,,,,,,,,,,,,,,,,,,,,,,,,,,,,,,,,,,,,,,,,,,,,,,,,,,,,,,,,,,,,,,,,,,,,,,,,,
