typedNumber,typingRT,answerCorr,typingLoopPract.thisRepN,typingLoopPract.thisTrialN,typingLoopPract.thisN,typingLoopPract.thisIndex,typingLoopPract.ran,productNo,participant,session,group,date,expName,psychopyVersion,OS,frameRate,typingRTrial.thisRepN,typingRTrial.thisTrialN,typingRTrial.thisN,typingRTrial.thisIndex,typingRTrial.ran,correct,respMousePrac.x,respMousePrac.y,respMousePrac.leftButton,respMousePrac.midButton,respMousePrac.rightButton,vptLoopPrac.thisRepN,vptLoopPrac.thisTrialN,vptLoopPrac.thisN,vptLoopPrac.thisIndex,vptLoopPrac.ran,tiles,rows,cols,vptCorrect,respMouse.x,respMouse.y,respMouse.leftButton,respMouse.midButton,respMouse.rightButton,trials.thisRepN,trials.thisTrialN,trials.thisN,trials.thisIndex,trials.ran,noOfBlocks,blockDuration,conditionLoop.thisRepN,conditionLoop.thisTrialN,conditionLoop.thisN,conditionLoop.thisIndex,conditionLoop.ran,sheet,readyMsg,TaskC.thisRepN,TaskC.thisTrialN,TaskC.thisN,TaskC.thisIndex,TaskC.ran,TaskOrderCond.thisRepN,TaskOrderCond.thisTrialN,TaskOrderCond.thisN,TaskOrderCond.thisIndex,TaskOrderCond.ran,nRepsTask1,nRepsTask2,nRepsTask3,typedAudioPrac,audioPracRT,audioPrCorr,audioLoopPrac.thisRepN,audioLoopPrac.thisTrialN,audioLoopPrac.thisN,audioLoopPrac.thisIndex,audioLoopPrac.ran,audiospan,digits_audio,soundsJS,EgnerDSresponse,EgnerDSrt,EgnerDSscore,audioRTrial.thisRepN,audioRTrial.thisTrialN,audioRTrial.thisN,audioRTrial.thisIndex,audioRTrial.ran,digitSpan,audioCondLoop.thisRepN,audioCondLoop.thisTrialN,audioCondLoop.thisN,audioCondLoop.thisIndex,audioCondLoop.ran,Condition,WAISDSresponse,WAISDSrt,WAISDSscore,audioRTrialwais.thisRepN,audioRTrialwais.thisTrialN,audioRTrialwais.thisN,audioRTrialwais.thisIndex,audioRTrialwais.ran,digitSpanWAIS,digits_audioWAIS,soundsWAIS,audioCondLoopwais.thisRepN,audioCondLoopwais.thisTrialN,audioCondLoopwais.thisN,audioCondLoopwais.thisIndex,audioCondLoopwais.ran,ConditionWAIS,TaskB.thisRepN,TaskB.thisTrialN,TaskB.thisN,TaskB.thisIndex,TaskB.ran,typedAnswer,multiplyRT,multiplyCorr,multiLoopPrac.thisRepN,multiLoopPrac.thisTrialN,multiLoopPrac.thisN,multiLoopPrac.thisIndex,multiLoopPrac.ran,problem,OperandType,productType,Answer,multiRTrial.thisRepN,multiRTrial.thisTrialN,multiRTrial.thisN,multiRTrial.thisIndex,multiRTrial.ran,trials_2.thisRepN,trials_2.thisTrialN,trials_2.thisN,trials_2.thisIndex,trials_2.ran,fileee,TaskA.thisRepN,TaskA.thisTrialN,TaskA.thisN,TaskA.thisIndex,TaskA.ran
,5.2658,0,0,0,0,2,1,59,875,001,CBA,2021-08-29_21h35.31.017,workingMemoryTest,2020.2.10,Win32,60,,,,,,,,,,,,,,,,,,,,,,,,,,,,,,,,,,,,,,,,,,,,,,,,,,,,,,,,,,,,,,,,,,,,,,,,,,,,,,,,,,,,,,,,,,,,,,,,,,,,,,,,,,,,,,,,,,,,,,,,,,,,,,,,
39,6.3148,1,0,1,1,0,1,39,875,001,CBA,2021-08-29_21h35.31.017,workingMemoryTest,2020.2.10,Win32,60,,,,,,,,,,,,,,,,,,,,,,,,,,,,,,,,,,,,,,,,,,,,,,,,,,,,,,,,,,,,,,,,,,,,,,,,,,,,,,,,,,,,,,,,,,,,,,,,,,,,,,,,,,,,,,,,,,,,,,,,,,,,,,,,
41,1.5006,1,0,2,2,1,1,41,875,001,CBA,2021-08-29_21h35.31.017,workingMemoryTest,2020.2.10,Win32,60,,,,,,,,,,,,,,,,,,,,,,,,,,,,,,,,,,,,,,,,,,,,,,,,,,,,,,,,,,,,,,,,,,,,,,,,,,,,,,,,,,,,,,,,,,,,,,,,,,,,,,,,,,,,,,,,,,,,,,,,,,,,,,,,
24,2.1494,1,,,,,,24,875,001,CBA,2021-08-29_21h35.31.017,workingMemoryTest,2020.2.10,Win32,60,0,0,0,11,1,,,,,,,,,,,,,,,,,,,,,,,,,,,,,,,,,,,,,,,,,,,,,,,,,,,,,,,,,,,,,,,,,,,,,,,,,,,,,,,,,,,,,,,,,,,,,,,,,,,,,,,,,,,,,,,,,,,,,,,,,,,
27,1.5326,1,,,,,,27,875,001,CBA,2021-08-29_21h35.31.017,workingMemoryTest,2020.2.10,Win32,60,0,1,1,12,1,,,,,,,,,,,,,,,,,,,,,,,,,,,,,,,,,,,,,,,,,,,,,,,,,,,,,,,,,,,,,,,,,,,,,,,,,,,,,,,,,,,,,,,,,,,,,,,,,,,,,,,,,,,,,,,,,,,,,,,,,,,
64,1.5329,1,,,,,,64,875,001,CBA,2021-08-29_21h35.31.017,workingMemoryTest,2020.2.10,Win32,60,0,2,2,26,1,,,,,,,,,,,,,,,,,,,,,,,,,,,,,,,,,,,,,,,,,,,,,,,,,,,,,,,,,,,,,,,,,,,,,,,,,,,,,,,,,,,,,,,,,,,,,,,,,,,,,,,,,,,,,,,,,,,,,,,,,,,
6,1.3659,1,,,,,,6,875,001,CBA,2021-08-29_21h35.31.017,workingMemoryTest,2020.2.10,Win32,60,0,3,3,0,1,,,,,,,,,,,,,,,,,,,,,,,,,,,,,,,,,,,,,,,,,,,,,,,,,,,,,,,,,,,,,,,,,,,,,,,,,,,,,,,,,,,,,,,,,,,,,,,,,,,,,,,,,,,,,,,,,,,,,,,,,,,
63,1.4665,1,,,,,,63,875,001,CBA,2021-08-29_21h35.31.017,workingMemoryTest,2020.2.10,Win32,60,0,4,4,25,1,,,,,,,,,,,,,,,,,,,,,,,,,,,,,,,,,,,,,,,,,,,,,,,,,,,,,,,,,,,,,,,,,,,,,,,,,,,,,,,,,,,,,,,,,,,,,,,,,,,,,,,,,,,,,,,,,,,,,,,,,,,
45,1.3159,1,,,,,,45,875,001,CBA,2021-08-29_21h35.31.017,workingMemoryTest,2020.2.10,Win32,60,0,5,5,20,1,,,,,,,,,,,,,,,,,,,,,,,,,,,,,,,,,,,,,,,,,,,,,,,,,,,,,,,,,,,,,,,,,,,,,,,,,,,,,,,,,,,,,,,,,,,,,,,,,,,,,,,,,,,,,,,,,,,,,,,,,,,
56,1.0324,1,,,,,,56,875,001,CBA,2021-08-29_21h35.31.017,workingMemoryTest,2020.2.10,Win32,60,0,6,6,24,1,,,,,,,,,,,,,,,,,,,,,,,,,,,,,,,,,,,,,,,,,,,,,,,,,,,,,,,,,,,,,,,,,,,,,,,,,,,,,,,,,,,,,,,,,,,,,,,,,,,,,,,,,,,,,,,,,,,,,,,,,,,
54,1.2161,1,,,,,,54,875,001,CBA,2021-08-29_21h35.31.017,workingMemoryTest,2020.2.10,Win32,60,0,7,7,23,1,,,,,,,,,,,,,,,,,,,,,,,,,,,,,,,,,,,,,,,,,,,,,,,,,,,,,,,,,,,,,,,,,,,,,,,,,,,,,,,,,,,,,,,,,,,,,,,,,,,,,,,,,,,,,,,,,,,,,,,,,,,
20,1.233,1,,,,,,20,875,001,CBA,2021-08-29_21h35.31.017,workingMemoryTest,2020.2.10,Win32,60,0,8,8,9,1,,,,,,,,,,,,,,,,,,,,,,,,,,,,,,,,,,,,,,,,,,,,,,,,,,,,,,,,,,,,,,,,,,,,,,,,,,,,,,,,,,,,,,,,,,,,,,,,,,,,,,,,,,,,,,,,,,,,,,,,,,,
35,1.2324,1,,,,,,35,875,001,CBA,2021-08-29_21h35.31.017,workingMemoryTest,2020.2.10,Win32,60,0,9,9,16,1,,,,,,,,,,,,,,,,,,,,,,,,,,,,,,,,,,,,,,,,,,,,,,,,,,,,,,,,,,,,,,,,,,,,,,,,,,,,,,,,,,,,,,,,,,,,,,,,,,,,,,,,,,,,,,,,,,,,,,,,,,,
18,1.2827,1,,,,,,18,875,001,CBA,2021-08-29_21h35.31.017,workingMemoryTest,2020.2.10,Win32,60,0,10,10,8,1,,,,,,,,,,,,,,,,,,,,,,,,,,,,,,,,,,,,,,,,,,,,,,,,,,,,,,,,,,,,,,,,,,,,,,,,,,,,,,,,,,,,,,,,,,,,,,,,,,,,,,,,,,,,,,,,,,,,,,,,,,,
21,1.1825,1,,,,,,21,875,001,CBA,2021-08-29_21h35.31.017,workingMemoryTest,2020.2.10,Win32,60,0,11,11,10,1,,,,,,,,,,,,,,,,,,,,,,,,,,,,,,,,,,,,,,,,,,,,,,,,,,,,,,,,,,,,,,,,,,,,,,,,,,,,,,,,,,,,,,,,,,,,,,,,,,,,,,,,,,,,,,,,,,,,,,,,,,,
16,1.333,1,,,,,,16,875,001,CBA,2021-08-29_21h35.31.017,workingMemoryTest,2020.2.10,Win32,60,0,12,12,7,1,,,,,,,,,,,,,,,,,,,,,,,,,,,,,,,,,,,,,,,,,,,,,,,,,,,,,,,,,,,,,,,,,,,,,,,,,,,,,,,,,,,,,,,,,,,,,,,,,,,,,,,,,,,,,,,,,,,,,,,,,,,
32,1.166,1,,,,,,32,875,001,CBA,2021-08-29_21h35.31.017,workingMemoryTest,2020.2.10,Win32,60,0,13,13,15,1,,,,,,,,,,,,,,,,,,,,,,,,,,,,,,,,,,,,,,,,,,,,,,,,,,,,,,,,,,,,,,,,,,,,,,,,,,,,,,,,,,,,,,,,,,,,,,,,,,,,,,,,,,,,,,,,,,,,,,,,,,,
72,1.5988,1,,,,,,72,875,001,CBA,2021-08-29_21h35.31.017,workingMemoryTest,2020.2.10,Win32,60,0,14,14,27,1,,,,,,,,,,,,,,,,,,,,,,,,,,,,,,,,,,,,,,,,,,,,,,,,,,,,,,,,,,,,,,,,,,,,,,,,,,,,,,,,,,,,,,,,,,,,,,,,,,,,,,,,,,,,,,,,,,,,,,,,,,,
10,1.1157,1,,,,,,10,875,001,CBA,2021-08-29_21h35.31.017,workingMemoryTest,2020.2.10,Win32,60,0,15,15,3,1,,,,,,,,,,,,,,,,,,,,,,,,,,,,,,,,,,,,,,,,,,,,,,,,,,,,,,,,,,,,,,,,,,,,,,,,,,,,,,,,,,,,,,,,,,,,,,,,,,,,,,,,,,,,,,,,,,,,,,,,,,,
15,1.1833,1,,,,,,15,875,001,CBA,2021-08-29_21h35.31.017,workingMemoryTest,2020.2.10,Win32,60,0,16,16,6,1,,,,,,,,,,,,,,,,,,,,,,,,,,,,,,,,,,,,,,,,,,,,,,,,,,,,,,,,,,,,,,,,,,,,,,,,,,,,,,,,,,,,,,,,,,,,,,,,,,,,,,,,,,,,,,,,,,,,,,,,,,,
42,1.6659,1,,,,,,42,875,001,CBA,2021-08-29_21h35.31.017,workingMemoryTest,2020.2.10,Win32,60,0,17,17,19,1,,,,,,,,,,,,,,,,,,,,,,,,,,,,,,,,,,,,,,,,,,,,,,,,,,,,,,,,,,,,,,,,,,,,,,,,,,,,,,,,,,,,,,,,,,,,,,,,,,,,,,,,,,,,,,,,,,,,,,,,,,,
49,2.0507,1,,,,,,49,875,001,CBA,2021-08-29_21h35.31.017,workingMemoryTest,2020.2.10,Win32,60,0,18,18,22,1,,,,,,,,,,,,,,,,,,,,,,,,,,,,,,,,,,,,,,,,,,,,,,,,,,,,,,,,,,,,,,,,,,,,,,,,,,,,,,,,,,,,,,,,,,,,,,,,,,,,,,,,,,,,,,,,,,,,,,,,,,,
12,0.8833,1,,,,,,12,875,001,CBA,2021-08-29_21h35.31.017,workingMemoryTest,2020.2.10,Win32,60,0,19,19,4,1,,,,,,,,,,,,,,,,,,,,,,,,,,,,,,,,,,,,,,,,,,,,,,,,,,,,,,,,,,,,,,,,,,,,,,,,,,,,,,,,,,,,,,,,,,,,,,,,,,,,,,,,,,,,,,,,,,,,,,,,,,,
48,1.4162,1,,,,,,48,875,001,CBA,2021-08-29_21h35.31.017,workingMemoryTest,2020.2.10,Win32,60,0,20,20,21,1,,,,,,,,,,,,,,,,,,,,,,,,,,,,,,,,,,,,,,,,,,,,,,,,,,,,,,,,,,,,,,,,,,,,,,,,,,,,,,,,,,,,,,,,,,,,,,,,,,,,,,,,,,,,,,,,,,,,,,,,,,,
14,1.0827,1,,,,,,14,875,001,CBA,2021-08-29_21h35.31.017,workingMemoryTest,2020.2.10,Win32,60,0,21,21,5,1,,,,,,,,,,,,,,,,,,,,,,,,,,,,,,,,,,,,,,,,,,,,,,,,,,,,,,,,,,,,,,,,,,,,,,,,,,,,,,,,,,,,,,,,,,,,,,,,,,,,,,,,,,,,,,,,,,,,,,,,,,,
40,1.6491,1,,,,,,40,875,001,CBA,2021-08-29_21h35.31.017,workingMemoryTest,2020.2.10,Win32,60,0,22,22,18,1,,,,,,,,,,,,,,,,,,,,,,,,,,,,,,,,,,,,,,,,,,,,,,,,,,,,,,,,,,,,,,,,,,,,,,,,,,,,,,,,,,,,,,,,,,,,,,,,,,,,,,,,,,,,,,,,,,,,,,,,,,,
8,0.9658,1,,,,,,8,875,001,CBA,2021-08-29_21h35.31.017,workingMemoryTest,2020.2.10,Win32,60,0,23,23,2,1,,,,,,,,,,,,,,,,,,,,,,,,,,,,,,,,,,,,,,,,,,,,,,,,,,,,,,,,,,,,,,,,,,,,,,,,,,,,,,,,,,,,,,,,,,,,,,,,,,,,,,,,,,,,,,,,,,,,,,,,,,,
36,1.7156,1,,,,,,36,875,001,CBA,2021-08-29_21h35.31.017,workingMemoryTest,2020.2.10,Win32,60,0,24,24,17,1,,,,,,,,,,,,,,,,,,,,,,,,,,,,,,,,,,,,,,,,,,,,,,,,,,,,,,,,,,,,,,,,,,,,,,,,,,,,,,,,,,,,,,,,,,,,,,,,,,,,,,,,,,,,,,,,,,,,,,,,,,,
28,1.3492,1,,,,,,28,875,001,CBA,2021-08-29_21h35.31.017,workingMemoryTest,2020.2.10,Win32,60,0,25,25,13,1,,,,,,,,,,,,,,,,,,,,,,,,,,,,,,,,,,,,,,,,,,,,,,,,,,,,,,,,,,,,,,,,,,,,,,,,,,,,,,,,,,,,,,,,,,,,,,,,,,,,,,,,,,,,,,,,,,,,,,,,,,,
9,0.8996,1,,,,,,9,875,001,CBA,2021-08-29_21h35.31.017,workingMemoryTest,2020.2.10,Win32,60,0,26,26,1,1,,,,,,,,,,,,,,,,,,,,,,,,,,,,,,,,,,,,,,,,,,,,,,,,,,,,,,,,,,,,,,,,,,,,,,,,,,,,,,,,,,,,,,,,,,,,,,,,,,,,,,,,,,,,,,,,,,,,,,,,,,,
30,1.2325,1,,,,,,30,875,001,CBA,2021-08-29_21h35.31.017,workingMemoryTest,2020.2.10,Win32,60,0,27,27,14,1,,,,,,,,,,,,,,,,,,,,,,,,,,,,,,,,,,,,,,,,,,,,,,,,,,,,,,,,,,,,,,,,,,,,,,,,,,,,,,,,,,,,,,,,,,,,,,,,,,,,,,,,,,,,,,,,,,,,,,,,,,,
,,,,,,,,,875,001,CBA,2021-08-29_21h35.31.017,workingMemoryTest,2020.2.10,Win32,60,,,,,,TRUE,-0.01,-0.317777778,1,0,0,0,0,0,2,1,,3,3,,,,,,,,,,,,,,,,,,,,,,,,,,,,,,,,,,,,,,,,,,,,,,,,,,,,,,,,,,,,,,,,,,,,,,,,,,,,,,,,,,,,,,,,,,,,,,,,,,,,,,,,,,,,,
,,,,,,,,,875,001,CBA,2021-08-29_21h35.31.017,workingMemoryTest,2020.2.10,Win32,60,,,,,,TRUE,-0.031111111,-0.353333333,1,0,0,0,1,1,1,1,,3,3,,,,,,,,,,,,,,,,,,,,,,,,,,,,,,,,,,,,,,,,,,,,,,,,,,,,,,,,,,,,,,,,,,,,,,,,,,,,,,,,,,,,,,,,,,,,,,,,,,,,,,,,,,,,,
,,,,,,,,,875,001,CBA,2021-08-29_21h35.31.017,workingMemoryTest,2020.2.10,Win32,60,,,,,,TRUE,-0.046666667,-0.343333333,1,0,0,0,2,2,0,1,,3,3,,,,,,,,,,,,,,,,,,,,,,,,,,,,,,,,,,,,,,,,,,,,,,,,,,,,,,,,,,,,,,,,,,,,,,,,,,,,,,,,,,,,,,,,,,,,,,,,,,,,,,,,,,,,,
,,,,,,,,,875,001,CBA,2021-08-29_21h35.31.017,workingMemoryTest,2020.2.10,Win32,60,,,,,,,,,,,,,,,,,,2,2,TRUE,0.053333333,-0.321111111,1,0,0,0,0,0,0,1,2,2,,,,,,,,,,,,,,,,,,,,,,,,,,,,,,,,,,,,,,,,,,,,,,,,,,,,,,,,,,,,,,,,,,,,,,,,,,,,,,,,,,,,,,,,,,,,,,,,
,,,,,,,,,875,001,CBA,2021-08-29_21h35.31.017,workingMemoryTest,2020.2.10,Win32,60,,,,,,,,,,,,,,,,,,2,2,TRUE,0.012222222,-0.337777778,1,0,0,0,1,1,1,1,2,2,,,,,,,,,,,,,,,,,,,,,,,,,,,,,,,,,,,,,,,,,,,,,,,,,,,,,,,,,,,,,,,,,,,,,,,,,,,,,,,,,,,,,,,,,,,,,,,,
,,,,,,,,,875,001,CBA,2021-08-29_21h35.31.017,workingMemoryTest,2020.2.10,Win32,60,,,,,,,,,,,,,,,,,,2,2,TRUE,-0.005555556,-0.341111111,1,0,0,0,2,2,2,1,2,2,,,,,,,,,,,,,,,,,,,,,,,,,,,,,,,,,,,,,,,,,,,,,,,,,,,,,,,,,,,,,,,,,,,,,,,,,,,,,,,,,,,,,,,,,,,,,,,,
,,,,,,,,,875,001,CBA,2021-08-29_21h35.31.017,workingMemoryTest,2020.2.10,Win32,60,,,,,,,,,,,,,,,,,,,,,,,,,,,,,,,,,0,0,0,0,1,blockTwo.xlsx,Ready for the next set? ,,,,,,,,,,,,,,,,,,,,,,,,,,,,,,,,,,,,,,,,,,,,,,,,,,,,,,,,,,,,,,,,,,,,,,,,,,,,,,,,,,,,,,,,,
,,,,,,,,,875,001,CBA,2021-08-29_21h35.31.017,workingMemoryTest,2020.2.10,Win32,60,,,,,,,,,,,,,,,,,,3,3,TRUE,-0.081111111,-0.356666667,1,0,0,0,0,0,0,1,3,2,,,,,,,,,,,,,,,,,,,,,,,,,,,,,,,,,,,,,,,,,,,,,,,,,,,,,,,,,,,,,,,,,,,,,,,,,,,,,,,,,,,,,,,,,,,,,,,,
,,,,,,,,,875,001,CBA,2021-08-29_21h35.31.017,workingMemoryTest,2020.2.10,Win32,60,,,,,,,,,,,,,,,,,,3,3,TRUE,-0.043333333,-0.34,1,0,0,0,1,1,1,1,3,2,,,,,,,,,,,,,,,,,,,,,,,,,,,,,,,,,,,,,,,,,,,,,,,,,,,,,,,,,,,,,,,,,,,,,,,,,,,,,,,,,,,,,,,,,,,,,,,,
,,,,,,,,,875,001,CBA,2021-08-29_21h35.31.017,workingMemoryTest,2020.2.10,Win32,60,,,,,,,,,,,,,,,,,,3,3,TRUE,0.042222222,-0.364444444,1,0,0,0,2,2,2,1,3,2,,,,,,,,,,,,,,,,,,,,,,,,,,,,,,,,,,,,,,,,,,,,,,,,,,,,,,,,,,,,,,,,,,,,,,,,,,,,,,,,,,,,,,,,,,,,,,,,
,,,,,,,,,875,001,CBA,2021-08-29_21h35.31.017,workingMemoryTest,2020.2.10,Win32,60,,,,,,,,,,,,,,,,,,,,,,,,,,,,,,,,,0,1,1,1,1,blockThree.xlsx,Ready for the next set? ,,,,,,,,,,,,,,,,,,,,,,,,,,,,,,,,,,,,,,,,,,,,,,,,,,,,,,,,,,,,,,,,,,,,,,,,,,,,,,,,,,,,,,,,,
,,,,,,,,,875,001,CBA,2021-08-29_21h35.31.017,workingMemoryTest,2020.2.10,Win32,60,,,,,,,,,,,,,,,,,,3,3,TRUE,-0.058888889,-0.357777778,1,0,0,0,0,0,0,1,4,2,,,,,,,,,,,,,,,,,,,,,,,,,,,,,,,,,,,,,,,,,,,,,,,,,,,,,,,,,,,,,,,,,,,,,,,,,,,,,,,,,,,,,,,,,,,,,,,,
,,,,,,,,,875,001,CBA,2021-08-29_21h35.31.017,workingMemoryTest,2020.2.10,Win32,60,,,,,,,,,,,,,,,,,,3,3,TRUE,-0.048888889,-0.337777778,1,0,0,0,1,1,1,1,4,2,,,,,,,,,,,,,,,,,,,,,,,,,,,,,,,,,,,,,,,,,,,,,,,,,,,,,,,,,,,,,,,,,,,,,,,,,,,,,,,,,,,,,,,,,,,,,,,,
,,,,,,,,,875,001,CBA,2021-08-29_21h35.31.017,workingMemoryTest,2020.2.10,Win32,60,,,,,,,,,,,,,,,,,,3,3,TRUE,0.014444444,-0.337777778,1,0,0,0,2,2,2,1,4,2,,,,,,,,,,,,,,,,,,,,,,,,,,,,,,,,,,,,,,,,,,,,,,,,,,,,,,,,,,,,,,,,,,,,,,,,,,,,,,,,,,,,,,,,,,,,,,,,
,,,,,,,,,875,001,CBA,2021-08-29_21h35.31.017,workingMemoryTest,2020.2.10,Win32,60,,,,,,,,,,,,,,,,,,,,,,,,,,,,,,,,,0,2,2,2,1,blockFour.xlsx,Ready for the next set? ,,,,,,,,,,,,,,,,,,,,,,,,,,,,,,,,,,,,,,,,,,,,,,,,,,,,,,,,,,,,,,,,,,,,,,,,,,,,,,,,,,,,,,,,,
,,,,,,,,,875,001,CBA,2021-08-29_21h35.31.017,workingMemoryTest,2020.2.10,Win32,60,,,,,,,,,,,,,,,,,,4,4,TRUE,-0.055555556,-0.351111111,1,0,0,0,0,0,0,1,5,,,,,,,,,,,,,,,,,,,,,,,,,,,,,,,,,,,,,,,,,,,,,,,,,,,,,,,,,,,,,,,,,,,,,,,,,,,,,,,,,,,,,,,,,,,,,,,,,
,,,,,,,,,875,001,CBA,2021-08-29_21h35.31.017,workingMemoryTest,2020.2.10,Win32,60,,,,,,,,,,,,,,,,,,4,4,TRUE,-0.098888889,-0.382222222,1,0,0,0,1,1,1,1,5,,,,,,,,,,,,,,,,,,,,,,,,,,,,,,,,,,,,,,,,,,,,,,,,,,,,,,,,,,,,,,,,,,,,,,,,,,,,,,,,,,,,,,,,,,,,,,,,,
,,,,,,,,,875,001,CBA,2021-08-29_21h35.31.017,workingMemoryTest,2020.2.10,Win32,60,,,,,,,,,,,,,,,,,,4,4,TRUE,-0.1,-0.347777778,1,0,0,0,2,2,2,1,5,,,,,,,,,,,,,,,,,,,,,,,,,,,,,,,,,,,,,,,,,,,,,,,,,,,,,,,,,,,,,,,,,,,,,,,,,,,,,,,,,,,,,,,,,,,,,,,,,
,,,,,,,,,875,001,CBA,2021-08-29_21h35.31.017,workingMemoryTest,2020.2.10,Win32,60,,,,,,,,,,,,,,,,,,,,,,,,,,,,,,,,,0,3,3,3,1,blockFive.xlsx,Ready for the next set? ,,,,,,,,,,,,,,,,,,,,,,,,,,,,,,,,,,,,,,,,,,,,,,,,,,,,,,,,,,,,,,,,,,,,,,,,,,,,,,,,,,,,,,,,,
,,,,,,,,,875,001,CBA,2021-08-29_21h35.31.017,workingMemoryTest,2020.2.10,Win32,60,,,,,,,,,,,,,,,,,,4,4,TRUE,0.006666667,-0.357777778,1,0,0,0,0,0,0,1,6,,,,,,,,,,,,,,,,,,,,,,,,,,,,,,,,,,,,,,,,,,,,,,,,,,,,,,,,,,,,,,,,,,,,,,,,,,,,,,,,,,,,,,,,,,,,,,,,,
,,,,,,,,,875,001,CBA,2021-08-29_21h35.31.017,workingMemoryTest,2020.2.10,Win32,60,,,,,,,,,,,,,,,,,,4,4,TRUE,0.016666667,-0.351111111,1,0,0,0,1,1,1,1,6,,,,,,,,,,,,,,,,,,,,,,,,,,,,,,,,,,,,,,,,,,,,,,,,,,,,,,,,,,,,,,,,,,,,,,,,,,,,,,,,,,,,,,,,,,,,,,,,,
,,,,,,,,,875,001,CBA,2021-08-29_21h35.31.017,workingMemoryTest,2020.2.10,Win32,60,,,,,,,,,,,,,,,,,,4,4,TRUE,-0.05,-0.314444444,1,0,0,0,2,2,2,1,6,,,,,,,,,,,,,,,,,,,,,,,,,,,,,,,,,,,,,,,,,,,,,,,,,,,,,,,,,,,,,,,,,,,,,,,,,,,,,,,,,,,,,,,,,,,,,,,,,
,,,,,,,,,875,001,CBA,2021-08-29_21h35.31.017,workingMemoryTest,2020.2.10,Win32,60,,,,,,,,,,,,,,,,,,,,,,,,,,,,,,,,,0,4,4,4,1,blockSix.xlsx,Ready for the next set? ,,,,,,,,,,,,,,,,,,,,,,,,,,,,,,,,,,,,,,,,,,,,,,,,,,,,,,,,,,,,,,,,,,,,,,,,,,,,,,,,,,,,,,,,,
,,,,,,,,,875,001,CBA,2021-08-29_21h35.31.017,workingMemoryTest,2020.2.10,Win32,60,,,,,,,,,,,,,,,,,,4,4,TRUE,0.053333333,-0.333333333,1,0,0,0,0,0,0,1,7,,,,,,,,,,,,,,,,,,,,,,,,,,,,,,,,,,,,,,,,,,,,,,,,,,,,,,,,,,,,,,,,,,,,,,,,,,,,,,,,,,,,,,,,,,,,,,,,,
,,,,,,,,,875,001,CBA,2021-08-29_21h35.31.017,workingMemoryTest,2020.2.10,Win32,60,,,,,,,,,,,,,,,,,,4,4,TRUE,0.008888889,-0.344444444,1,0,0,0,1,1,1,1,7,,,,,,,,,,,,,,,,,,,,,,,,,,,,,,,,,,,,,,,,,,,,,,,,,,,,,,,,,,,,,,,,,,,,,,,,,,,,,,,,,,,,,,,,,,,,,,,,,
,,,,,,,,,875,001,CBA,2021-08-29_21h35.31.017,workingMemoryTest,2020.2.10,Win32,60,,,,,,,,,,,,,,,,,,4,4,TRUE,-0.022222222,-0.34,1,0,0,0,2,2,2,1,7,,,,,,,,,,,,,,,,,,,,,,,,,,,,,,,,,,,,,,,,,,,,,,,,,,,,,,,,,,,,,,,,,,,,,,,,,,,,,,,,,,,,,,,,,,,,,,,,,
,,,,,,,,,875,001,CBA,2021-08-29_21h35.31.017,workingMemoryTest,2020.2.10,Win32,60,,,,,,,,,,,,,,,,,,,,,,,,,,,,,,,,,0,5,5,5,1,blockSeven.xlsx,Ready for the next set? ,,,,,,,,,,,,,,,,,,,,,,,,,,,,,,,,,,,,,,,,,,,,,,,,,,,,,,,,,,,,,,,,,,,,,,,,,,,,,,,,,,,,,,,,,
,,,,,,,,,875,001,CBA,2021-08-29_21h35.31.017,workingMemoryTest,2020.2.10,Win32,60,,,,,,,,,,,,,,,,,,4,4,TRUE,-0.025555556,-0.357777778,1,0,0,0,0,0,0,1,8,,,,,,,,,,,,,,,,,,,,,,,,,,,,,,,,,,,,,,,,,,,,,,,,,,,,,,,,,,,,,,,,,,,,,,,,,,,,,,,,,,,,,,,,,,,,,,,,,
,,,,,,,,,875,001,CBA,2021-08-29_21h35.31.017,workingMemoryTest,2020.2.10,Win32,60,,,,,,,,,,,,,,,,,,4,4,TRUE,-0.025555556,-0.334444444,1,0,0,0,1,1,1,1,8,,,,,,,,,,,,,,,,,,,,,,,,,,,,,,,,,,,,,,,,,,,,,,,,,,,,,,,,,,,,,,,,,,,,,,,,,,,,,,,,,,,,,,,,,,,,,,,,,
,,,,,,,,,875,001,CBA,2021-08-29_21h35.31.017,workingMemoryTest,2020.2.10,Win32,60,,,,,,,,,,,,,,,,,,4,4,FALSE,-0.034444444,-0.348888889,1,0,0,0,2,2,2,1,8,,,,,,,,,,,,,,,,,,,,,,,,,,,,,,,,,,,,,,,,,,,,,,,,,,,,,,,,,,,,,,,,,,,,,,,,,,,,,,,,,,,,,,,,,,,,,,,,,
,,,,,,,,,875,001,CBA,2021-08-29_21h35.31.017,workingMemoryTest,2020.2.10,Win32,60,,,,,,,,,,,,,,,,,,,,,,,,,,,,,,,,,0,6,6,6,1,blockEight.xlsx,Ready for the next set? ,,,,,,,,,,,,,,,,,,,,,,,,,,,,,,,,,,,,,,,,,,,,,,,,,,,,,,,,,,,,,,,,,,,,,,,,,,,,,,,,,,,,,,,,,
,,,,,,,,,875,001,CBA,2021-08-29_21h35.31.017,workingMemoryTest,2020.2.10,Win32,60,,,,,,,,,,,,,,,,,,5,5,TRUE,-0.027777778,-0.34,1,0,0,0,0,0,0,1,9,,,,,,,,,,,,,,,,,,,,,,,,,,,,,,,,,,,,,,,,,,,,,,,,,,,,,,,,,,,,,,,,,,,,,,,,,,,,,,,,,,,,,,,,,,,,,,,,,
,,,,,,,,,875,001,CBA,2021-08-29_21h35.31.017,workingMemoryTest,2020.2.10,Win32,60,,,,,,,,,,,,,,,,,,5,5,FALSE,-0.043333333,-0.334444444,1,0,0,0,1,1,1,1,9,,,,,,,,,,,,,,,,,,,,,,,,,,,,,,,,,,,,,,,,,,,,,,,,,,,,,,,,,,,,,,,,,,,,,,,,,,,,,,,,,,,,,,,,,,,,,,,,,
,,,,,,,,,875,001,CBA,2021-08-29_21h35.31.017,workingMemoryTest,2020.2.10,Win32,60,,,,,,,,,,,,,,,,,,5,5,TRUE,0.054444444,-0.325555556,1,0,0,0,2,2,2,1,9,,,,,,,,,,,,,,,,,,,,,,,,,,,,,,,,,,,,,,,,,,,,,,,,,,,,,,,,,,,,,,,,,,,,,,,,,,,,,,,,,,,,,,,,,,,,,,,,,
,,,,,,,,,875,001,CBA,2021-08-29_21h35.31.017,workingMemoryTest,2020.2.10,Win32,60,,,,,,,,,,,,,,,,,,,,,,,,,,,,,,,,,0,7,7,7,1,blockNine.xlsx,Ready for the next set? ,,,,,,,,,,,,,,,,,,,,,,,,,,,,,,,,,,,,,,,,,,,,,,,,,,,,,,,,,,,,,,,,,,,,,,,,,,,,,,,,,,,,,,,,,
,,,,,,,,,875,001,CBA,2021-08-29_21h35.31.017,workingMemoryTest,2020.2.10,Win32,60,,,,,,,,,,,,,,,,,,5,5,TRUE,-0.027777778,-0.336666667,1,0,0,0,0,0,0,1,10,,,,,,,,,,,,,,,,,,,,,,,,,,,,,,,,,,,,,,,,,,,,,,,,,,,,,,,,,,,,,,,,,,,,,,,,,,,,,,,,,,,,,,,,,,,,,,,,,
,,,,,,,,,875,001,CBA,2021-08-29_21h35.31.017,workingMemoryTest,2020.2.10,Win32,60,,,,,,,,,,,,,,,,,,5,5,TRUE,-0.055555556,-0.335555556,1,0,0,0,1,1,1,1,10,,,,,,,,,,,,,,,,,,,,,,,,,,,,,,,,,,,,,,,,,,,,,,,,,,,,,,,,,,,,,,,,,,,,,,,,,,,,,,,,,,,,,,,,,,,,,,,,,
,,,,,,,,,875,001,CBA,2021-08-29_21h35.31.017,workingMemoryTest,2020.2.10,Win32,60,,,,,,,,,,,,,,,,,,5,5,TRUE,0.022222222,-0.36,1,0,0,0,2,2,2,1,10,,,,,,,,,,,,,,,,,,,,,,,,,,,,,,,,,,,,,,,,,,,,,,,,,,,,,,,,,,,,,,,,,,,,,,,,,,,,,,,,,,,,,,,,,,,,,,,,,
,,,,,,,,,875,001,CBA,2021-08-29_21h35.31.017,workingMemoryTest,2020.2.10,Win32,60,,,,,,,,,,,,,,,,,,,,,,,,,,,,,,,,,0,8,8,8,1,blockTen.xlsx,Ready for the next set? ,,,,,,,,,,,,,,,,,,,,,,,,,,,,,,,,,,,,,,,,,,,,,,,,,,,,,,,,,,,,,,,,,,,,,,,,,,,,,,,,,,,,,,,,,
,,,,,,,,,875,001,CBA,2021-08-29_21h35.31.017,workingMemoryTest,2020.2.10,Win32,60,,,,,,,,,,,,,,,,,,5,5,TRUE,-0.017777778,-0.326666667,1,0,0,0,0,0,0,1,11,,,,,,,,,,,,,,,,,,,,,,,,,,,,,,,,,,,,,,,,,,,,,,,,,,,,,,,,,,,,,,,,,,,,,,,,,,,,,,,,,,,,,,,,,,,,,,,,,
,,,,,,,,,875,001,CBA,2021-08-29_21h35.31.017,workingMemoryTest,2020.2.10,Win32,60,,,,,,,,,,,,,,,,,,5,5,TRUE,-0.078888889,-0.316666667,1,0,0,0,1,1,1,1,11,,,,,,,,,,,,,,,,,,,,,,,,,,,,,,,,,,,,,,,,,,,,,,,,,,,,,,,,,,,,,,,,,,,,,,,,,,,,,,,,,,,,,,,,,,,,,,,,,
,,,,,,,,,875,001,CBA,2021-08-29_21h35.31.017,workingMemoryTest,2020.2.10,Win32,60,,,,,,,,,,,,,,,,,,5,5,TRUE,-0.022222222,-0.325555556,1,0,0,0,2,2,2,1,11,,,,,,,,,,,,,,,,,,,,,,,,,,,,,,,,,,,,,,,,,,,,,,,,,,,,,,,,,,,,,,,,,,,,,,,,,,,,,,,,,,,,,,,,,,,,,,,,,
,,,,,,,,,875,001,CBA,2021-08-29_21h35.31.017,workingMemoryTest,2020.2.10,Win32,60,,,,,,,,,,,,,,,,,,,,,,,,,,,,,,,,,0,9,9,9,1,blockEleven.xlsx,Ready for the next set? ,,,,,,,,,,,,,,,,,,,,,,,,,,,,,,,,,,,,,,,,,,,,,,,,,,,,,,,,,,,,,,,,,,,,,,,,,,,,,,,,,,,,,,,,,
,,,,,,,,,875,001,CBA,2021-08-29_21h35.31.017,workingMemoryTest,2020.2.10,Win32,60,,,,,,,,,,,,,,,,,,5,5,FALSE,-0.034444444,-0.348888889,1,0,0,0,0,0,0,1,12,,,,,,,,,,,,,,,,,,,,,,,,,,,,,,,,,,,,,,,,,,,,,,,,,,,,,,,,,,,,,,,,,,,,,,,,,,,,,,,,,,,,,,,,,,,,,,,,,
,,,,,,,,,875,001,CBA,2021-08-29_21h35.31.017,workingMemoryTest,2020.2.10,Win32,60,,,,,,,,,,,,,,,,,,5,5,TRUE,-0.031111111,-0.341111111,1,0,0,0,1,1,1,1,12,,,,,,,,,,,,,,,,,,,,,,,,,,,,,,,,,,,,,,,,,,,,,,,,,,,,,,,,,,,,,,,,,,,,,,,,,,,,,,,,,,,,,,,,,,,,,,,,,
,,,,,,,,,875,001,CBA,2021-08-29_21h35.31.017,workingMemoryTest,2020.2.10,Win32,60,,,,,,,,,,,,,,,,,,5,5,FALSE,-0.012222222,-0.337777778,1,0,0,0,2,2,2,1,12,,,,,,,,,,,,,,,,,,,,,,,,,,,,,,,,,,,,,,,,,,,,,,,,,,,,,,,,,,,,,,,,,,,,,,,,,,,,,,,,,,,,,,,,,,,,,,,,,
,,,,,,,,,875,001,CBA,2021-08-29_21h35.31.017,workingMemoryTest,2020.2.10,Win32,60,,,,,,,,,,,,,,,,,,,,,,,,,,,,,,,,,,,,,,,,0,0,0,0,1,,,,,,,,,,,,,,,,,,,,,,,,,,,,,,,,,,,,,,,,,,,,,,,,,,,,,,,,,,,,,,,,,,,,,,,,,,,,,,,,,,,,
,,,,,,,,,875,001,CBA,2021-08-29_21h35.31.017,workingMemoryTest,2020.2.10,Win32,60,,,,,,,,,,,,,,,,,,,,,,,,,,,,,,,,,,,,,,,,,,,,,0,0,0,0,1,0,0,1,,,,,,,,,,,,,,,,,,,,,,,,,,,,,,,,,,,,,,,,,,,,,,,,,,,,,,,,,,,,,,,,,,,,,,,,,,,,
,,,,,,,,,875,001,CBA,2021-08-29_21h35.31.017,workingMemoryTest,2020.2.10,Win32,60,,,,,,,,,,,,,,,,,,,,,,,,,,,,,,,,,,,,,,,,,,,,,,,,,,,,,123,2.7818,1,0,0,0,0,1,practice,123,Audio/123.mp3,,,,,,,,,,,,,,,,,,,,,,,,,,,,,,,,,,,,,,,,,,,,,,,,,,,,,,,,,,,,,,,,,
,,,,,,,,,875,001,CBA,2021-08-29_21h35.31.017,workingMemoryTest,2020.2.10,Win32,60,,,,,,,,,,,,,,,,,,,,,,,,,,,,,,,,,,,,,,,,,,,,,,,,,,,,,321,1.5001,1,0,1,1,1,1,practice,321,Audio/321.mp3,,,,,,,,,,,,,,,,,,,,,,,,,,,,,,,,,,,,,,,,,,,,,,,,,,,,,,,,,,,,,,,,,
,,,,,,,,,875,001,CBA,2021-08-29_21h35.31.017,workingMemoryTest,2020.2.10,Win32,60,,,,,,,,,,,,,,,,,,,,,,,,,,,,,,,,,,,,,,,,,,,,,,,,,,,,,911,2.0997,1,0,2,2,2,1,practice,911,Audio/911.mp3,,,,,,,,,,,,,,,,,,,,,,,,,,,,,,,,,,,,,,,,,,,,,,,,,,,,,,,,,,,,,,,,,
,,,,,,,,,875,001,CBA,2021-08-29_21h35.31.017,workingMemoryTest,2020.2.10,Win32,60,,,,,,,,,,,,,,,,,,,,,,,,,,,,,,,,,,,,,,,,,,,,,,,,,,,,,,,,,,,,,,46,Audio/46.mp3,46,1.7798,1,0,0,0,0,1,2,,,,,,,,,,,,,,,,,,,,,,,,,,,,,,,,,,,,,,,,,,,,,,,,,,,,,,,,
,,,,,,,,,875,001,CBA,2021-08-29_21h35.31.017,workingMemoryTest,2020.2.10,Win32,60,,,,,,,,,,,,,,,,,,,,,,,,,,,,,,,,,,,,,,,,,,,,,,,,,,,,,,,,,,,,,,,,,,,,,,,,,0,0,0,0,1,twoAudio.xlsx,,,,,,,,,,,,,,,,,,,,,,,,,,,,,,,,,,,,,,,,,,,,,,,,,,
,,,,,,,,,875,001,CBA,2021-08-29_21h35.31.017,workingMemoryTest,2020.2.10,Win32,60,,,,,,,,,,,,,,,,,,,,,,,,,,,,,,,,,,,,,,,,,,,,,,,,,,,,,,,,,,,,,,157,Audio/157.mp3,157,1.433,1,0,0,0,0,1,3,,,,,,,,,,,,,,,,,,,,,,,,,,,,,,,,,,,,,,,,,,,,,,,,,,,,,,,,
,,,,,,,,,875,001,CBA,2021-08-29_21h35.31.017,workingMemoryTest,2020.2.10,Win32,60,,,,,,,,,,,,,,,,,,,,,,,,,,,,,,,,,,,,,,,,,,,,,,,,,,,,,,,,,,,,,,,,,,,,,,,,,0,1,1,1,1,threeAudio.xlsx,,,,,,,,,,,,,,,,,,,,,,,,,,,,,,,,,,,,,,,,,,,,,,,,,,
,,,,,,,,,875,001,CBA,2021-08-29_21h35.31.017,workingMemoryTest,2020.2.10,Win32,60,,,,,,,,,,,,,,,,,,,,,,,,,,,,,,,,,,,,,,,,,,,,,,,,,,,,,,,,,,,,,,6352,Audio/6352.mp3,6352,1.9491,1,0,0,0,0,1,4,,,,,,,,,,,,,,,,,,,,,,,,,,,,,,,,,,,,,,,,,,,,,,,,,,,,,,,,
,,,,,,,,,875,001,CBA,2021-08-29_21h35.31.017,workingMemoryTest,2020.2.10,Win32,60,,,,,,,,,,,,,,,,,,,,,,,,,,,,,,,,,,,,,,,,,,,,,,,,,,,,,,,,,,,,,,,,,,,,,,,,,0,2,2,2,1,fourAudio.xlsx,,,,,,,,,,,,,,,,,,,,,,,,,,,,,,,,,,,,,,,,,,,,,,,,,,
,,,,,,,,,875,001,CBA,2021-08-29_21h35.31.017,workingMemoryTest,2020.2.10,Win32,60,,,,,,,,,,,,,,,,,,,,,,,,,,,,,,,,,,,,,,,,,,,,,,,,,,,,,,,,,,,,,,59281,Audio/59281.mp3,59281,3.9638,1,0,0,0,0,1,5,,,,,,,,,,,,,,,,,,,,,,,,,,,,,,,,,,,,,,,,,,,,,,,,,,,,,,,,
,,,,,,,,,875,001,CBA,2021-08-29_21h35.31.017,workingMemoryTest,2020.2.10,Win32,60,,,,,,,,,,,,,,,,,,,,,,,,,,,,,,,,,,,,,,,,,,,,,,,,,,,,,,,,,,,,,,,,,,,,,,,,,0,3,3,3,1,fiveAudio.xlsx,,,,,,,,,,,,,,,,,,,,,,,,,,,,,,,,,,,,,,,,,,,,,,,,,,
,,,,,,,,,875,001,CBA,2021-08-29_21h35.31.017,workingMemoryTest,2020.2.10,Win32,60,,,,,,,,,,,,,,,,,,,,,,,,,,,,,,,,,,,,,,,,,,,,,,,,,,,,,,,,,,,,,,396172,Audio/396172.mp3,396172,3.5318,1,0,0,0,0,1,6,,,,,,,,,,,,,,,,,,,,,,,,,,,,,,,,,,,,,,,,,,,,,,,,,,,,,,,,
,,,,,,,,,875,001,CBA,2021-08-29_21h35.31.017,workingMemoryTest,2020.2.10,Win32,60,,,,,,,,,,,,,,,,,,,,,,,,,,,,,,,,,,,,,,,,,,,,,,,,,,,,,,,,,,,,,,,,,,,,,,,,,0,4,4,4,1,sixAudio.xlsx,,,,,,,,,,,,,,,,,,,,,,,,,,,,,,,,,,,,,,,,,,,,,,,,,,
,,,,,,,,,875,001,CBA,2021-08-29_21h35.31.017,workingMemoryTest,2020.2.10,Win32,60,,,,,,,,,,,,,,,,,,,,,,,,,,,,,,,,,,,,,,,,,,,,,,,,,,,,,,,,,,,,,,8241973,Audio/8241973.mp3,8241973,4.2484,1,0,0,0,0,1,7,,,,,,,,,,,,,,,,,,,,,,,,,,,,,,,,,,,,,,,,,,,,,,,,,,,,,,,,
,,,,,,,,,875,001,CBA,2021-08-29_21h35.31.017,workingMemoryTest,2020.2.10,Win32,60,,,,,,,,,,,,,,,,,,,,,,,,,,,,,,,,,,,,,,,,,,,,,,,,,,,,,,,,,,,,,,,,,,,,,,,,,0,5,5,5,1,sevenAudio.xlsx,,,,,,,,,,,,,,,,,,,,,,,,,,,,,,,,,,,,,,,,,,,,,,,,,,
,,,,,,,,,875,001,CBA,2021-08-29_21h35.31.017,workingMemoryTest,2020.2.10,Win32,60,,,,,,,,,,,,,,,,,,,,,,,,,,,,,,,,,,,,,,,,,,,,,,,,,,,,,,,,,,,,,,53827164,Audio/53827164.mp3,53827164,6.9323,1,0,0,0,0,1,8,,,,,,,,,,,,,,,,,,,,,,,,,,,,,,,,,,,,,,,,,,,,,,,,,,,,,,,,
,,,,,,,,,875,001,CBA,2021-08-29_21h35.31.017,workingMemoryTest,2020.2.10,Win32,60,,,,,,,,,,,,,,,,,,,,,,,,,,,,,,,,,,,,,,,,,,,,,,,,,,,,,,,,,,,,,,,,,,,,,,,,,0,6,6,6,1,eightAudio.xlsx,,,,,,,,,,,,,,,,,,,,,,,,,,,,,,,,,,,,,,,,,,,,,,,,,,
,,,,,,,,,875,001,CBA,2021-08-29_21h35.31.017,workingMemoryTest,2020.2.10,Win32,60,,,,,,,,,,,,,,,,,,,,,,,,,,,,,,,,,,,,,,,,,,,,,,,,,,,,,,,,,,,,,,682594316,Audio/682594316.mp3,682594316,14.4643,1,0,0,0,0,1,9,,,,,,,,,,,,,,,,,,,,,,,,,,,,,,,,,,,,,,,,,,,,,,,,,,,,,,,,
,,,,,,,,,875,001,CBA,2021-08-29_21h35.31.017,workingMemoryTest,2020.2.10,Win32,60,,,,,,,,,,,,,,,,,,,,,,,,,,,,,,,,,,,,,,,,,,,,,,,,,,,,,,,,,,,,,,,,,,,,,,,,,0,7,7,7,1,nineAudio.xlsx,,,,,,,,,,,,,,,,,,,,,,,,,,,,,,,,,,,,,,,,,,,,,,,,,,
,,,,,,,,,875,001,CBA,2021-08-29_21h35.31.017,workingMemoryTest,2020.2.10,Win32,60,,,,,,,,,,,,,,,,,,,,,,,,,,,,,,,,,,,,,,,,,,,,,,,,,,,,,,,,,,,,,,,,,,,,,,,,,,,,,,,97,2.5641,1,0,0,0,0,1,2,97,Audio/97.mp3,,,,,,,,,,,,,,,,,,,,,,,,,,,,,,,,,,,,,,,
,,,,,,,,,875,001,CBA,2021-08-29_21h35.31.017,workingMemoryTest,2020.2.10,Win32,60,,,,,,,,,,,,,,,,,,,,,,,,,,,,,,,,,,,,,,,,,,,,,,,,,,,,,,,,,,,,,,,,,,,,,,,,,,,,,,,,,,,,,,,,,,0,0,0,0,1,twoWAIS.xlsx,,,,,,,,,,,,,,,,,,,,,,,,,,,,,,,,,
,,,,,,,,,875,001,CBA,2021-08-29_21h35.31.017,workingMemoryTest,2020.2.10,Win32,60,,,,,,,,,,,,,,,,,,,,,,,,,,,,,,,,,,,,,,,,,,,,,,,,,,,,,,,,,,,,,,,,,,,,,,,,,,,,,,,582,3.6151,1,0,0,0,0,1,3,582,Audio/582.mp3,,,,,,,,,,,,,,,,,,,,,,,,,,,,,,,,,,,,,,,
,,,,,,,,,875,001,CBA,2021-08-29_21h35.31.017,workingMemoryTest,2020.2.10,Win32,60,,,,,,,,,,,,,,,,,,,,,,,,,,,,,,,,,,,,,,,,,,,,,,,,,,,,,,,,,,,,,,,,,,,,,,,,,,,,,,,,,,,,,,,,,,0,1,1,1,1,threeWAIS.xlsx,,,,,,,,,,,,,,,,,,,,,,,,,,,,,,,,,
,,,,,,,,,875,001,CBA,2021-08-29_21h35.31.017,workingMemoryTest,2020.2.10,Win32,60,,,,,,,,,,,,,,,,,,,,,,,,,,,,,,,,,,,,,,,,,,,,,,,,,,,,,,,,,,,,,,,,,,,,,,,,,,,,,,,7286,4.7988,1,0,0,0,0,1,4,7286,Audio/7286.mp3,,,,,,,,,,,,,,,,,,,,,,,,,,,,,,,,,,,,,,,
,,,,,,,,,875,001,CBA,2021-08-29_21h35.31.017,workingMemoryTest,2020.2.10,Win32,60,,,,,,,,,,,,,,,,,,,,,,,,,,,,,,,,,,,,,,,,,,,,,,,,,,,,,,,,,,,,,,,,,,,,,,,,,,,,,,,,,,,,,,,,,,0,2,2,2,1,fourWAIS.xlsx,,,,,,,,,,,,,,,,,,,,,,,,,,,,,,,,,
,,,,,,,,,875,001,CBA,2021-08-29_21h35.31.017,workingMemoryTest,2020.2.10,Win32,60,,,,,,,,,,,,,,,,,,,,,,,,,,,,,,,,,,,,,,,,,,,,,,,,,,,,,,,,,,,,,,,,,,,,,,,,,,,,,,,42731,3.9991,1,0,0,0,0,1,5,42731,Audio/42731.mp3,,,,,,,,,,,,,,,,,,,,,,,,,,,,,,,,,,,,,,,
,,,,,,,,,875,001,CBA,2021-08-29_21h35.31.017,workingMemoryTest,2020.2.10,Win32,60,,,,,,,,,,,,,,,,,,,,,,,,,,,,,,,,,,,,,,,,,,,,,,,,,,,,,,,,,,,,,,,,,,,,,,,,,,,,,,,,,,,,,,,,,,0,3,3,3,1,fiveWAIS.xlsx,,,,,,,,,,,,,,,,,,,,,,,,,,,,,,,,,
,,,,,,,,,875,001,CBA,2021-08-29_21h35.31.017,workingMemoryTest,2020.2.10,Win32,60,,,,,,,,,,,,,,,,,,,,,,,,,,,,,,,,,,,,,,,,,,,,,,,,,,,,,,,,,,,,,,,,,,,,,,,,,,,,,,,392487,4.6478,1,0,0,0,0,1,6,392487,Audio/392487.mp3,,,,,,,,,,,,,,,,,,,,,,,,,,,,,,,,,,,,,,,
,,,,,,,,,875,001,CBA,2021-08-29_21h35.31.017,workingMemoryTest,2020.2.10,Win32,60,,,,,,,,,,,,,,,,,,,,,,,,,,,,,,,,,,,,,,,,,,,,,,,,,,,,,,,,,,,,,,,,,,,,,,,,,,,,,,,,,,,,,,,,,,0,4,4,4,1,sixWAIS.xlsx,,,,,,,,,,,,,,,,,,,,,,,,,,,,,,,,,
,,,,,,,,,875,001,CBA,2021-08-29_21h35.31.017,workingMemoryTest,2020.2.10,Win32,60,,,,,,,,,,,,,,,,,,,,,,,,,,,,,,,,,,,,,,,,,,,,,,,,,,,,,,,,,,,,,,,,,,,,,,,,,,,,,,,6917428,5.6984,1,0,0,0,0,1,7,6917428,Audio/6917428.mp3,,,,,,,,,,,,,,,,,,,,,,,,,,,,,,,,,,,,,,,
,,,,,,,,,875,001,CBA,2021-08-29_21h35.31.017,workingMemoryTest,2020.2.10,Win32,60,,,,,,,,,,,,,,,,,,,,,,,,,,,,,,,,,,,,,,,,,,,,,,,,,,,,,,,,,,,,,,,,,,,,,,,,,,,,,,,,,,,,,,,,,,0,5,5,5,1,sevenWAIS.xlsx,,,,,,,,,,,,,,,,,,,,,,,,,,,,,,,,,
,,,,,,,,,875,001,CBA,2021-08-29_21h35.31.017,workingMemoryTest,2020.2.10,Win32,60,,,,,,,,,,,,,,,,,,,,,,,,,,,,,,,,,,,,,,,,,,,,,,,,,,,,,,,,,,,,,,,,,,,,,,,,,,,,,,,38296174,6.599,1,0,0,0,0,1,8,38296174,Audio/38296174.mp3,,,,,,,,,,,,,,,,,,,,,,,,,,,,,,,,,,,,,,,
,,,,,,,,,875,001,CBA,2021-08-29_21h35.31.017,workingMemoryTest,2020.2.10,Win32,60,,,,,,,,,,,,,,,,,,,,,,,,,,,,,,,,,,,,,,,,,,,,,,,,,,,,,,,,,,,,,,,,,,,,,,,,,,,,,,,,,,,,,,,,,,0,6,6,6,1,eightWAIS.xlsx,,,,,,,,,,,,,,,,,,,,,,,,,,,,,,,,,
,,,,,,,,,875,001,CBA,2021-08-29_21h35.31.017,workingMemoryTest,2020.2.10,Win32,60,,,,,,,,,,,,,,,,,,,,,,,,,,,,,,,,,,,,,,,,,,,,,,,,,,,,,,,,,,,,,,,,,,,,,,,,,,,,,,,275863194,9.8308,1,0,0,0,0,1,9,275863194,Audio/275863194.mp3,,,,,,,,,,,,,,,,,,,,,,,,,,,,,,,,,,,,,,,
,,,,,,,,,875,001,CBA,2021-08-29_21h35.31.017,workingMemoryTest,2020.2.10,Win32,60,,,,,,,,,,,,,,,,,,,,,,,,,,,,,,,,,,,,,,,,,,,,,,,,,,,,,,,,,,,,,,,,,,,,,,,,,,,,,,,,,,,,,,,,,,0,7,7,7,1,nineWAIS.xlsx,,,,,,,,,,,,,,,,,,,,,,,,,,,,,,,,,
,,,,,,,,,875,001,CBA,2021-08-29_21h35.31.017,workingMemoryTest,2020.2.10,Win32,60,,,,,,,,,,,,,,,,,,,,,,,,,,,,,,,,,,,,,,,,,,,,,,,,,,,,,,,,,,,,,,,,,,,,,,,,,,,,,,,,,,,,,,,,,,,,,,,,0,0,0,0,1,,,,,,,,,,,,,,,,,,,,,,,,,,,,
,,,,,,,,,875,001,CBA,2021-08-29_21h35.31.017,workingMemoryTest,2020.2.10,Win32,60,,,,,,,,,,,,,,,,,,,,,,,,,,,,,,,,,,,,,,,,,,,,,0,1,1,1,1,0,1,0,,,,,,,,,,,,,,,,,,,,,,,,,,,,,,,,,,,,,,,,,,,,,,,,,,,,,,,,,,,,,,,,,,,,,,,,,,,,
,,,,,,,,,875,001,CBA,2021-08-29_21h35.31.017,workingMemoryTest,2020.2.10,Win32,60,,,,,,,,,,,,,,,,,,,,,,,,,,,,,,,,,,,,,,,,,,,,,,,,,,,,,,,,,,,,,,,,,,,,,,,,,,,,,,,,,,,,,,,,,,,,,,,,,,,,,33,1.6493,1,0,0,0,2,1,3 x 11 =,NA,practiceQ,33,,,,,,,,,,,,,,,,
,,,,,,,,,875,001,CBA,2021-08-29_21h35.31.017,workingMemoryTest,2020.2.10,Win32,60,,,,,,,,,,,,,,,,,,,,,,,,,,,,,,,,,,,,,,,,,,,,,,,,,,,,,,,,,,,,,,,,,,,,,,,,,,,,,,,,,,,,,,,,,,,,,,,,,,,,,7,1.332,1,0,1,1,0,1,1 x 7 =,NA,practiceQ,7,,,,,,,,,,,,,,,,
,,,,,,,,,875,001,CBA,2021-08-29_21h35.31.017,workingMemoryTest,2020.2.10,Win32,60,,,,,,,,,,,,,,,,,,,,,,,,,,,,,,,,,,,,,,,,,,,,,,,,,,,,,,,,,,,,,,,,,,,,,,,,,,,,,,,,,,,,,,,,,,,,,,,,,,,,,50,1.9653,1,0,2,2,1,1,5 x 10 =,NA,practiceQ,50,,,,,,,,,,,,,,,,
,,,,,,,,,875,001,CBA,2021-08-29_21h35.31.017,workingMemoryTest,2020.2.10,Win32,60,,,,,,,,,,,,,,,,,,,,,,,,,,,,,,,,,,,,,,,,,,,,,,,,,,,,,,,,,,,,,,,,,,,,,,,,,,,,,,,,,,,,,,,,,,,,,,,,,,,,,36,5.0489,1,,,,,,9 x 4 =,largeFirst,largeProd,36,0,0,0,8,1,,,,,,,,,,,
,,,,,,,,,875,001,CBA,2021-08-29_21h35.31.017,workingMemoryTest,2020.2.10,Win32,60,,,,,,,,,,,,,,,,,,,,,,,,,,,,,,,,,,,,,,,,,,,,,,,,,,,,,,,,,,,,,,,,,,,,,,,,,,,,,,,,,,,,,,,,,,,,,,,,,,,,,8,1.598,1,,,,,,4 x 2 =,largeFirst,smallProd,8,0,1,1,0,1,,,,,,,,,,,
,,,,,,,,,875,001,CBA,2021-08-29_21h35.31.017,workingMemoryTest,2020.2.10,Win32,60,,,,,,,,,,,,,,,,,,,,,,,,,,,,,,,,,,,,,,,,,,,,,,,,,,,,,,,,,,,,,,,,,,,,,,,,,,,,,,,,,,,,,,,,,,,,,,,,,,,,,16,1.9324,1,,,,,,2 x 8 =,smallFirst,smallProd,16,0,2,2,19,1,,,,,,,,,,,
,,,,,,,,,875,001,CBA,2021-08-29_21h35.31.017,workingMemoryTest,2020.2.10,Win32,60,,,,,,,,,,,,,,,,,,,,,,,,,,,,,,,,,,,,,,,,,,,,,,,,,,,,,,,,,,,,,,,,,,,,,,,,,,,,,,,,,,,,,,,,,,,,,,,,,,,,,15,1.5994,1,,,,,,5 x 3 =,largeFirst,smallProd,15,0,3,3,1,1,,,,,,,,,,,
,,,,,,,,,875,001,CBA,2021-08-29_21h35.31.017,workingMemoryTest,2020.2.10,Win32,60,,,,,,,,,,,,,,,,,,,,,,,,,,,,,,,,,,,,,,,,,,,,,,,,,,,,,,,,,,,,,,,,,,,,,,,,,,,,,,,,,,,,,,,,,,,,,,,,,,,,,72,2.1496,1,,,,,,9 x 8 =,largeFirst,largeProd,72,0,4,4,12,1,,,,,,,,,,,
,,,,,,,,,875,001,CBA,2021-08-29_21h35.31.017,workingMemoryTest,2020.2.10,Win32,60,,,,,,,,,,,,,,,,,,,,,,,,,,,,,,,,,,,,,,,,,,,,,,,,,,,,,,,,,,,,,,,,,,,,,,,,,,,,,,,,,,,,,,,,,,,,,,,,,,,,,18,2.9995,1,,,,,,9 x 2 =,largeFirst,smallProd,18,0,5,5,6,1,,,,,,,,,,,
,,,,,,,,,875,001,CBA,2021-08-29_21h35.31.017,workingMemoryTest,2020.2.10,Win32,60,,,,,,,,,,,,,,,,,,,,,,,,,,,,,,,,,,,,,,,,,,,,,,,,,,,,,,,,,,,,,,,,,,,,,,,,,,,,,,,,,,,,,,,,,,,,,,,,,,,,,35,3.1163,1,,,,,,5 x 7 =,smallFirst,largeProd,35,0,6,6,25,1,,,,,,,,,,,
,,,,,,,,,875,001,CBA,2021-08-29_21h35.31.017,workingMemoryTest,2020.2.10,Win32,60,,,,,,,,,,,,,,,,,,,,,,,,,,,,,,,,,,,,,,,,,,,,,,,,,,,,,,,,,,,,,,,,,,,,,,,,,,,,,,,,,,,,,,,,,,,,,,,,,,,,,24,3.0162,1,,,,,,8 x 3 =,largeFirst,smallProd,24,0,7,7,4,1,,,,,,,,,,,
,,,,,,,,,875,001,CBA,2021-08-29_21h35.31.017,workingMemoryTest,2020.2.10,Win32,60,,,,,,,,,,,,,,,,,,,,,,,,,,,,,,,,,,,,,,,,,,,,,,,,,,,,,,,,,,,,,,,,,,,,,,,,,,,,,,,,,,,,,,,,,,,,,,,,,,,,,54,3.9165,1,,,,,,9 x 6 =,largeFirst,largeProd,54,0,8,8,9,1,,,,,,,,,,,
,,,,,,,,,875,001,CBA,2021-08-29_21h35.31.017,workingMemoryTest,2020.2.10,Win32,60,,,,,,,,,,,,,,,,,,,,,,,,,,,,,,,,,,,,,,,,,,,,,,,,,,,,,,,,,,,,,,,,,,,,,,,,,,,,,,,,,,,,,,,,,,,,,,,,,,,,,24,2.8329,1,,,,,,4 x 6 =,smallFirst,smallProd,24,0,9,9,20,1,,,,,,,,,,,
,,,,,,,,,875,001,CBA,2021-08-29_21h35.31.017,workingMemoryTest,2020.2.10,Win32,60,,,,,,,,,,,,,,,,,,,,,,,,,,,,,,,,,,,,,,,,,,,,,,,,,,,,,,,,,,,,,,,,,,,,,,,,,,,,,,,,,,,,,,,,,,,,,,,,,,,,,16,5.2988,1,,,,,,4 x 4 =,tie,smallProd,16,0,10,10,28,1,,,,,,,,,,,
,,,,,,,,,875,001,CBA,2021-08-29_21h35.31.017,workingMemoryTest,2020.2.10,Win32,60,,,,,,,,,,,,,,,,,,,,,,,,,,,,,,,,,,,,,,,,,,,,,,,,,,,,,,,,,,,,,,,,,,,,,,,,,,,,,,,,,,,,,,,,,,,,,,,,,,,,,32,5.8989,0,,,,,,8 x 6 =,largeFirst,largeProd,48,0,11,11,13,1,,,,,,,,,,,
,,,,,,,,,875,001,CBA,2021-08-29_21h35.31.017,workingMemoryTest,2020.2.10,Win32,60,,,,,,,,,,,,,,,,,,,,,,,,,,,,,,,,,,,,,,,,,,,,,,,,,,,,,,,,,,,,,,,,,,,,,,,,,,,,,,,,,,,,,,,,,,,,,,,,,,,,,20,2.2822,1,,,,,,5 x 4 =,largeFirst,smallProd,20,0,12,12,5,1,,,,,,,,,,,
,,,,,,,,,875,001,CBA,2021-08-29_21h35.31.017,workingMemoryTest,2020.2.10,Win32,60,,,,,,,,,,,,,,,,,,,,,,,,,,,,,,,,,,,,,,,,,,,,,,,,,,,,,,,,,,,,,,,,,,,,,,,,,,,,,,,,,,,,,,,,,,,,,,,,,,,,,42,10.948,1,,,,,,6 x 7 =,smallFirst,largeProd,42,0,13,13,23,1,,,,,,,,,,,
,,,,,,,,,875,001,CBA,2021-08-29_21h35.31.017,workingMemoryTest,2020.2.10,Win32,60,,,,,,,,,,,,,,,,,,,,,,,,,,,,,,,,,,,,,,,,,,,,,,,,,,,,,,,,,,,,,,,,,,,,,,,,,,,,,,,,,,,,,,,,,,,,,,,,,,,,,63,8.4484,1,,,,,,7 x 9 =,smallFirst,largeProd,63,0,14,14,26,1,,,,,,,,,,,
,,,,,,,,,875,001,CBA,2021-08-29_21h35.31.017,workingMemoryTest,2020.2.10,Win32,60,,,,,,,,,,,,,,,,,,,,,,,,,,,,,,,,,,,,,,,,,,,,,,,,,,,,,,,,,,,,,,,,,,,,,,,,,,,,,,,,,,,,,,,,,,,,,,,,,,,,,14,1.7157,1,,,,,,2 x 7 =,smallFirst,smallProd,14,0,15,15,18,1,,,,,,,,,,,
,,,,,,,,,875,001,CBA,2021-08-29_21h35.31.017,workingMemoryTest,2020.2.10,Win32,60,,,,,,,,,,,,,,,,,,,,,,,,,,,,,,,,,,,,,,,,,,,,,,,,,,,,,,,,,,,,,,,,,,,,,,,,,,,,,,,,,,,,,,,,,,,,,,,,,,,,,64,3.3824,1,,,,,,8 x 8 =,tie,largeProd,64,0,16,16,29,1,,,,,,,,,,,
,,,,,,,,,875,001,CBA,2021-08-29_21h35.31.017,workingMemoryTest,2020.2.10,Win32,60,,,,,,,,,,,,,,,,,,,,,,,,,,,,,,,,,,,,,,,,,,,,,,,,,,,,,,,,,,,,,,,,,,,,,,,,,,,,,,,,,,,,,,,,,,,,,,,,,,,,,30,2.3494,1,,,,,,5 x 6 =,smallFirst,largeProd,30,0,17,17,27,1,,,,,,,,,,,
,,,,,,,,,875,001,CBA,2021-08-29_21h35.31.017,workingMemoryTest,2020.2.10,Win32,60,,,,,,,,,,,,,,,,,,,,,,,,,,,,,,,,,,,,,,,,,,,,,,,,,,,,,,,,,,,,,,,,,,,,,,,,,,,,,,,,,,,,,,,,,,,,,,,,,,,,,40,1.9323,1,,,,,,8 x 5 =,largeFirst,largeProd,40,0,18,18,11,1,,,,,,,,,,,
,,,,,,,,,875,001,CBA,2021-08-29_21h35.31.017,workingMemoryTest,2020.2.10,Win32,60,,,,,,,,,,,,,,,,,,,,,,,,,,,,,,,,,,,,,,,,,,,,,,,,,,,,,,,,,,,,,,,,,,,,,,,,,,,,,,,,,,,,,,,,,,,,,,,,,,,,,18,2.2491,1,,,,,,3 x 6 =,smallFirst,smallProd,18,0,19,19,17,1,,,,,,,,,,,
,,,,,,,,,875,001,CBA,2021-08-29_21h35.31.017,workingMemoryTest,2020.2.10,Win32,60,,,,,,,,,,,,,,,,,,,,,,,,,,,,,,,,,,,,,,,,,,,,,,,,,,,,,,,,,,,,,,,,,,,,,,,,,,,,,,,,,,,,,,,,,,,,,,,,,,,,,45,2.7331,1,,,,,,5 x 9 =,smallFirst,largeProd,45,0,20,20,21,1,,,,,,,,,,,
,,,,,,,,,875,001,CBA,2021-08-29_21h35.31.017,workingMemoryTest,2020.2.10,Win32,60,,,,,,,,,,,,,,,,,,,,,,,,,,,,,,,,,,,,,,,,,,,,,,,,,,,,,,,,,,,,,,,,,,,,,,,,,,,,,,,,,,,,,,,,,,,,,,,,,,,,,12,1.7824,1,,,,,,3 x 4 =,smallFirst,smallProd,12,0,21,21,15,1,,,,,,,,,,,
,,,,,,,,,875,001,CBA,2021-08-29_21h35.31.017,workingMemoryTest,2020.2.10,Win32,60,,,,,,,,,,,,,,,,,,,,,,,,,,,,,,,,,,,,,,,,,,,,,,,,,,,,,,,,,,,,,,,,,,,,,,,,,,,,,,,,,,,,,,,,,,,,,,,,,,,,,27,3.6157,1,,,,,,3 x 9 =,smallFirst,largeProd,27,0,22,22,24,1,,,,,,,,,,,
,,,,,,,,,875,001,CBA,2021-08-29_21h35.31.017,workingMemoryTest,2020.2.10,Win32,60,,,,,,,,,,,,,,,,,,,,,,,,,,,,,,,,,,,,,,,,,,,,,,,,,,,,,,,,,,,,,,,,,,,,,,,,,,,,,,,,,,,,,,,,,,,,,,,,,,,,,12,1.4161,1,,,,,,6 x 2 =,largeFirst,smallProd,12,0,23,23,2,1,,,,,,,,,,,
,,,,,,,,,875,001,CBA,2021-08-29_21h35.31.017,workingMemoryTest,2020.2.10,Win32,60,,,,,,,,,,,,,,,,,,,,,,,,,,,,,,,,,,,,,,,,,,,,,,,,,,,,,,,,,,,,,,,,,,,,,,,,,,,,,,,,,,,,,,,,,,,,,,,,,,,,,32,4.549,1,,,,,,4 x 8 =,smallFirst,largeProd,32,0,24,24,22,1,,,,,,,,,,,
,,,,,,,,,875,001,CBA,2021-08-29_21h35.31.017,workingMemoryTest,2020.2.10,Win32,60,,,,,,,,,,,,,,,,,,,,,,,,,,,,,,,,,,,,,,,,,,,,,,,,,,,,,,,,,,,,,,,,,,,,,,,,,,,,,,,,,,,,,,,,,,,,,,,,,,,,,56,2.5155,1,,,,,,8 x 7 =,largeFirst,largeProd,56,0,25,25,10,1,,,,,,,,,,,
,,,,,,,,,875,001,CBA,2021-08-29_21h35.31.017,workingMemoryTest,2020.2.10,Win32,60,,,,,,,,,,,,,,,,,,,,,,,,,,,,,,,,,,,,,,,,,,,,,,,,,,,,,,,,,,,,,,,,,,,,,,,,,,,,,,,,,,,,,,,,,,,,,,,,,,,,,21,1.7664,1,,,,,,7 x 3 =,largeFirst,smallProd,21,0,26,26,3,1,,,,,,,,,,,
,,,,,,,,,875,001,CBA,2021-08-29_21h35.31.017,workingMemoryTest,2020.2.10,Win32,60,,,,,,,,,,,,,,,,,,,,,,,,,,,,,,,,,,,,,,,,,,,,,,,,,,,,,,,,,,,,,,,,,,,,,,,,,,,,,,,,,,,,,,,,,,,,,,,,,,,,,6,1.6496,1,,,,,,2 x 3 =,smallFirst,smallProd,6,0,27,27,14,1,,,,,,,,,,,
,,,,,,,,,875,001,CBA,2021-08-29_21h35.31.017,workingMemoryTest,2020.2.10,Win32,60,,,,,,,,,,,,,,,,,,,,,,,,,,,,,,,,,,,,,,,,,,,,,,,,,,,,,,,,,,,,,,,,,,,,,,,,,,,,,,,,,,,,,,,,,,,,,,,,,,,,,28,1.7161,1,,,,,,7 x 4 =,largeFirst,largeProd,28,0,28,28,7,1,,,,,,,,,,,
,,,,,,,,,875,001,CBA,2021-08-29_21h35.31.017,workingMemoryTest,2020.2.10,Win32,60,,,,,,,,,,,,,,,,,,,,,,,,,,,,,,,,,,,,,,,,,,,,,,,,,,,,,,,,,,,,,,,,,,,,,,,,,,,,,,,,,,,,,,,,,,,,,,,,,,,,,10,1.416,1,,,,,,2 x 5 =,smallFirst,smallProd,10,0,29,29,16,1,,,,,,,,,,,
,,,,,,,,,875,001,CBA,2021-08-29_21h35.31.017,workingMemoryTest,2020.2.10,Win32,60,,,,,,,,,,,,,,,,,,,,,,,,,,,,,,,,,,,,,,,,,,,,,,,,,,,,,,,,,,,,,,,,,,,,,,,,,,,,,,,,,,,,,,,,,,,,,,,,,,,,,,,,,,,,,,,,,,,,,,0,0,0,1,1,multiplTwo.xlsx,,,,,
,,,,,,,,,875,001,CBA,2021-08-29_21h35.31.017,workingMemoryTest,2020.2.10,Win32,60,,,,,,,,,,,,,,,,,,,,,,,,,,,,,,,,,,,,,,,,,,,,,,,,,,,,,,,,,,,,,,,,,,,,,,,,,,,,,,,,,,,,,,,,,,,,,,,,,,,,,36,4.8994,0,,,,,,6 x 9 =,smallFirst,largeProd,54,0,0,0,22,1,,,,,,,,,,,
,,,,,,,,,875,001,CBA,2021-08-29_21h35.31.017,workingMemoryTest,2020.2.10,Win32,60,,,,,,,,,,,,,,,,,,,,,,,,,,,,,,,,,,,,,,,,,,,,,,,,,,,,,,,,,,,,,,,,,,,,,,,,,,,,,,,,,,,,,,,,,,,,,,,,,,,,,56,1.8158,1,,,,,,7 x 8 =,smallFirst,largeProd,56,0,1,1,23,1,,,,,,,,,,,
,,,,,,,,,875,001,CBA,2021-08-29_21h35.31.017,workingMemoryTest,2020.2.10,Win32,60,,,,,,,,,,,,,,,,,,,,,,,,,,,,,,,,,,,,,,,,,,,,,,,,,,,,,,,,,,,,,,,,,,,,,,,,,,,,,,,,,,,,,,,,,,,,,,,,,,,,,27,4.1321,1,,,,,,9 x 3 =,largeFirst,largeProd,27,0,2,2,7,1,,,,,,,,,,,
,,,,,,,,,875,001,CBA,2021-08-29_21h35.31.017,workingMemoryTest,2020.2.10,Win32,60,,,,,,,,,,,,,,,,,,,,,,,,,,,,,,,,,,,,,,,,,,,,,,,,,,,,,,,,,,,,,,,,,,,,,,,,,,,,,,,,,,,,,,,,,,,,,,,,,,,,,63,4.1321,1,,,,,,9 x 7 =,largeFirst,largeProd,63,0,3,3,12,1,,,,,,,,,,,
,,,,,,,,,875,001,CBA,2021-08-29_21h35.31.017,workingMemoryTest,2020.2.10,Win32,60,,,,,,,,,,,,,,,,,,,,,,,,,,,,,,,,,,,,,,,,,,,,,,,,,,,,,,,,,,,,,,,,,,,,,,,,,,,,,,,,,,,,,,,,,,,,,,,,,,,,,12,1.3828,1,,,,,,2 x 6 =,smallFirst,smallProd,12,0,4,4,20,1,,,,,,,,,,,
,,,,,,,,,875,001,CBA,2021-08-29_21h35.31.017,workingMemoryTest,2020.2.10,Win32,60,,,,,,,,,,,,,,,,,,,,,,,,,,,,,,,,,,,,,,,,,,,,,,,,,,,,,,,,,,,,,,,,,,,,,,,,,,,,,,,,,,,,,,,,,,,,,,,,,,,,,18,1.9828,1,,,,,,6 x 3 =,largeFirst,smallProd,18,0,5,5,3,1,,,,,,,,,,,
,,,,,,,,,875,001,CBA,2021-08-29_21h35.31.017,workingMemoryTest,2020.2.10,Win32,60,,,,,,,,,,,,,,,,,,,,,,,,,,,,,,,,,,,,,,,,,,,,,,,,,,,,,,,,,,,,,,,,,,,,,,,,,,,,,,,,,,,,,,,,,,,,,,,,,,,,,21,2.3826,1,,,,,,3 x 7 =,smallFirst,smallProd,21,0,6,6,14,1,,,,,,,,,,,
,,,,,,,,,875,001,CBA,2021-08-29_21h35.31.017,workingMemoryTest,2020.2.10,Win32,60,,,,,,,,,,,,,,,,,,,,,,,,,,,,,,,,,,,,,,,,,,,,,,,,,,,,,,,,,,,,,,,,,,,,,,,,,,,,,,,,,,,,,,,,,,,,,,,,,,,,,72,5.2824,1,,,,,,8 x 9 =,smallFirst,largeProd,72,0,7,7,24,1,,,,,,,,,,,
,,,,,,,,,875,001,CBA,2021-08-29_21h35.31.017,workingMemoryTest,2020.2.10,Win32,60,,,,,,,,,,,,,,,,,,,,,,,,,,,,,,,,,,,,,,,,,,,,,,,,,,,,,,,,,,,,,,,,,,,,,,,,,,,,,,,,,,,,,,,,,,,,,,,,,,,,,9,1.5656,1,,,,,,3 x 3 =,tie,smallProd,9,0,8,8,28,1,,,,,,,,,,,
,,,,,,,,,875,001,CBA,2021-08-29_21h35.31.017,workingMemoryTest,2020.2.10,Win32,60,,,,,,,,,,,,,,,,,,,,,,,,,,,,,,,,,,,,,,,,,,,,,,,,,,,,,,,,,,,,,,,,,,,,,,,,,,,,,,,,,,,,,,,,,,,,,,,,,,,,,6,1.2329,1,,,,,,3 x 2 =,largeFirst,smallProd,6,0,9,9,0,1,,,,,,,,,,,
,,,,,,,,,875,001,CBA,2021-08-29_21h35.31.017,workingMemoryTest,2020.2.10,Win32,60,,,,,,,,,,,,,,,,,,,,,,,,,,,,,,,,,,,,,,,,,,,,,,,,,,,,,,,,,,,,,,,,,,,,,,,,,,,,,,,,,,,,,,,,,,,,,,,,,,,,,8,1.4993,1,,,,,,2 x 4 =,smallFirst,smallProd,8,0,10,10,17,1,,,,,,,,,,,
,,,,,,,,,875,001,CBA,2021-08-29_21h35.31.017,workingMemoryTest,2020.2.10,Win32,60,,,,,,,,,,,,,,,,,,,,,,,,,,,,,,,,,,,,,,,,,,,,,,,,,,,,,,,,,,,,,,,,,,,,,,,,,,,,,,,,,,,,,,,,,,,,,,,,,,,,,16,1.5497,1,,,,,,8 x 2 =,largeFirst,smallProd,16,0,11,11,5,1,,,,,,,,,,,
,,,,,,,,,875,001,CBA,2021-08-29_21h35.31.017,workingMemoryTest,2020.2.10,Win32,60,,,,,,,,,,,,,,,,,,,,,,,,,,,,,,,,,,,,,,,,,,,,,,,,,,,,,,,,,,,,,,,,,,,,,,,,,,,,,,,,,,,,,,,,,,,,,,,,,,,,,12,1.2328,1,,,,,,4 x 3 =,largeFirst,smallProd,12,0,12,12,1,1,,,,,,,,,,,
,,,,,,,,,875,001,CBA,2021-08-29_21h35.31.017,workingMemoryTest,2020.2.10,Win32,60,,,,,,,,,,,,,,,,,,,,,,,,,,,,,,,,,,,,,,,,,,,,,,,,,,,,,,,,,,,,,,,,,,,,,,,,,,,,,,,,,,,,,,,,,,,,,,,,,,,,,14,1.2663,1,,,,,,7 x 2 =,largeFirst,smallProd,14,0,13,13,4,1,,,,,,,,,,,
,,,,,,,,,875,001,CBA,2021-08-29_21h35.31.017,workingMemoryTest,2020.2.10,Win32,60,,,,,,,,,,,,,,,,,,,,,,,,,,,,,,,,,,,,,,,,,,,,,,,,,,,,,,,,,,,,,,,,,,,,,,,,,,,,,,,,,,,,,,,,,,,,,,,,,,,,,35,2.8494,1,,,,,,7 x 5 =,largeFirst,largeProd,35,0,14,14,11,1,,,,,,,,,,,
,,,,,,,,,875,001,CBA,2021-08-29_21h35.31.017,workingMemoryTest,2020.2.10,Win32,60,,,,,,,,,,,,,,,,,,,,,,,,,,,,,,,,,,,,,,,,,,,,,,,,,,,,,,,,,,,,,,,,,,,,,,,,,,,,,,,,,,,,,,,,,,,,,,,,,,,,,36,7.1492,1,,,,,,4 x 9 =,smallFirst,largeProd,36,0,15,15,26,1,,,,,,,,,,,
,,,,,,,,,875,001,CBA,2021-08-29_21h35.31.017,workingMemoryTest,2020.2.10,Win32,60,,,,,,,,,,,,,,,,,,,,,,,,,,,,,,,,,,,,,,,,,,,,,,,,,,,,,,,,,,,,,,,,,,,,,,,,,,,,,,,,,,,,,,,,,,,,,,,,,,,,,28,1.5996,1,,,,,,4 x 7 =,smallFirst,largeProd,28,0,16,16,25,1,,,,,,,,,,,
,,,,,,,,,875,001,CBA,2021-08-29_21h35.31.017,workingMemoryTest,2020.2.10,Win32,60,,,,,,,,,,,,,,,,,,,,,,,,,,,,,,,,,,,,,,,,,,,,,,,,,,,,,,,,,,,,,,,,,,,,,,,,,,,,,,,,,,,,,,,,,,,,,,,,,,,,,15,1.8158,1,,,,,,3 x 5 =,smallFirst,smallProd,15,0,17,17,19,1,,,,,,,,,,,
,,,,,,,,,875,001,CBA,2021-08-29_21h35.31.017,workingMemoryTest,2020.2.10,Win32,60,,,,,,,,,,,,,,,,,,,,,,,,,,,,,,,,,,,,,,,,,,,,,,,,,,,,,,,,,,,,,,,,,,,,,,,,,,,,,,,,,,,,,,,,,,,,,,,,,,,,,42,10.0323,1,,,,,,7 x 6 =,largeFirst,largeProd,42,0,18,18,10,1,,,,,,,,,,,
,,,,,,,,,875,001,CBA,2021-08-29_21h35.31.017,workingMemoryTest,2020.2.10,Win32,60,,,,,,,,,,,,,,,,,,,,,,,,,,,,,,,,,,,,,,,,,,,,,,,,,,,,,,,,,,,,,,,,,,,,,,,,,,,,,,,,,,,,,,,,,,,,,,,,,,,,,30,2.6825,1,,,,,,6 x 5 =,largeFirst,largeProd,30,0,19,19,13,1,,,,,,,,,,,
,,,,,,,,,875,001,CBA,2021-08-29_21h35.31.017,workingMemoryTest,2020.2.10,Win32,60,,,,,,,,,,,,,,,,,,,,,,,,,,,,,,,,,,,,,,,,,,,,,,,,,,,,,,,,,,,,,,,,,,,,,,,,,,,,,,,,,,,,,,,,,,,,,,,,,,,,,20,1.6161,1,,,,,,4 x 5 =,smallFirst,smallProd,20,0,20,20,16,1,,,,,,,,,,,
,,,,,,,,,875,001,CBA,2021-08-29_21h35.31.017,workingMemoryTest,2020.2.10,Win32,60,,,,,,,,,,,,,,,,,,,,,,,,,,,,,,,,,,,,,,,,,,,,,,,,,,,,,,,,,,,,,,,,,,,,,,,,,,,,,,,,,,,,,,,,,,,,,,,,,,,,,24,2.1494,1,,,,,,3 x 8 =,smallFirst,smallProd,24,0,21,21,15,1,,,,,,,,,,,
,,,,,,,,,875,001,CBA,2021-08-29_21h35.31.017,workingMemoryTest,2020.2.10,Win32,60,,,,,,,,,,,,,,,,,,,,,,,,,,,,,,,,,,,,,,,,,,,,,,,,,,,,,,,,,,,,,,,,,,,,,,,,,,,,,,,,,,,,,,,,,,,,,,,,,,,,,49,1.7158,1,,,,,,7 x 7 =,tie,largeProd,49,0,22,22,29,1,,,,,,,,,,,
,,,,,,,,,875,001,CBA,2021-08-29_21h35.31.017,workingMemoryTest,2020.2.10,Win32,60,,,,,,,,,,,,,,,,,,,,,,,,,,,,,,,,,,,,,,,,,,,,,,,,,,,,,,,,,,,,,,,,,,,,,,,,,,,,,,,,,,,,,,,,,,,,,,,,,,,,,40,2.0327,1,,,,,,5 x 8 =,smallFirst,largeProd,40,0,23,23,27,1,,,,,,,,,,,
,,,,,,,,,875,001,CBA,2021-08-29_21h35.31.017,workingMemoryTest,2020.2.10,Win32,60,,,,,,,,,,,,,,,,,,,,,,,,,,,,,,,,,,,,,,,,,,,,,,,,,,,,,,,,,,,,,,,,,,,,,,,,,,,,,,,,,,,,,,,,,,,,,,,,,,,,,48,24.8129,1,,,,,,6 x 8 =,smallFirst,largeProd,48,0,24,24,21,1,,,,,,,,,,,
,,,,,,,,,875,001,CBA,2021-08-29_21h35.31.017,workingMemoryTest,2020.2.10,Win32,60,,,,,,,,,,,,,,,,,,,,,,,,,,,,,,,,,,,,,,,,,,,,,,,,,,,,,,,,,,,,,,,,,,,,,,,,,,,,,,,,,,,,,,,,,,,,,,,,,,,,,10,1.7996,1,,,,,,5 x 2 =,largeFirst,smallProd,10,0,25,25,2,1,,,,,,,,,,,
,,,,,,,,,875,001,CBA,2021-08-29_21h35.31.017,workingMemoryTest,2020.2.10,Win32,60,,,,,,,,,,,,,,,,,,,,,,,,,,,,,,,,,,,,,,,,,,,,,,,,,,,,,,,,,,,,,,,,,,,,,,,,,,,,,,,,,,,,,,,,,,,,,,,,,,,,,45,1.9325,1,,,,,,9 x 5 =,largeFirst,largeProd,45,0,26,26,9,1,,,,,,,,,,,
,,,,,,,,,875,001,CBA,2021-08-29_21h35.31.017,workingMemoryTest,2020.2.10,Win32,60,,,,,,,,,,,,,,,,,,,,,,,,,,,,,,,,,,,,,,,,,,,,,,,,,,,,,,,,,,,,,,,,,,,,,,,,,,,,,,,,,,,,,,,,,,,,,,,,,,,,,24,2.7163,1,,,,,,6 x 4 =,largeFirst,smallProd,24,0,27,27,6,1,,,,,,,,,,,
,,,,,,,,,875,001,CBA,2021-08-29_21h35.31.017,workingMemoryTest,2020.2.10,Win32,60,,,,,,,,,,,,,,,,,,,,,,,,,,,,,,,,,,,,,,,,,,,,,,,,,,,,,,,,,,,,,,,,,,,,,,,,,,,,,,,,,,,,,,,,,,,,,,,,,,,,,18,1.3663,1,,,,,,2 x 9 =,smallFirst,smallProd,18,0,28,28,18,1,,,,,,,,,,,
,,,,,,,,,875,001,CBA,2021-08-29_21h35.31.017,workingMemoryTest,2020.2.10,Win32,60,,,,,,,,,,,,,,,,,,,,,,,,,,,,,,,,,,,,,,,,,,,,,,,,,,,,,,,,,,,,,,,,,,,,,,,,,,,,,,,,,,,,,,,,,,,,,,,,,,,,,32,6.5655,1,,,,,,8 x 4 =,largeFirst,largeProd,32,0,29,29,8,1,,,,,,,,,,,
,,,,,,,,,875,001,CBA,2021-08-29_21h35.31.017,workingMemoryTest,2020.2.10,Win32,60,,,,,,,,,,,,,,,,,,,,,,,,,,,,,,,,,,,,,,,,,,,,,,,,,,,,,,,,,,,,,,,,,,,,,,,,,,,,,,,,,,,,,,,,,,,,,,,,,,,,,,,,,,,,,,,,,,,,,,0,1,1,0,1,multiplOne.xlsx,,,,,
,,,,,,,,,875,001,CBA,2021-08-29_21h35.31.017,workingMemoryTest,2020.2.10,Win32,60,,,,,,,,,,,,,,,,,,,,,,,,,,,,,,,,,,,,,,,,,,,,,,,,,,,,,,,,,,,,,,,,,,,,,,,,,,,,,,,,,,,,,,,,,,,,,,,,,,,,,,,,,,,,,,,,,,,,,,,,,,,,0,0,0,0,1
,,,,,,,,,875,001,CBA,2021-08-29_21h35.31.017,workingMemoryTest,2020.2.10,Win32,60,,,,,,,,,,,,,,,,,,,,,,,,,,,,,,,,,,,,,,,,,,,,,0,2,2,2,1,1,0,0,,,,,,,,,,,,,,,,,,,,,,,,,,,,,,,,,,,,,,,,,,,,,,,,,,,,,,,,,,,,,,,,,,,,,,,,,,,,
