typedNumber,typingRT,answerCorr,typingLoopPract.thisRepN,typingLoopPract.thisTrialN,typingLoopPract.thisN,typingLoopPract.thisIndex,typingLoopPract.ran,productNo,participant,session,group,date,expName,psychopyVersion,OS,frameRate,typingRTrial.thisRepN,typingRTrial.thisTrialN,typingRTrial.thisN,typingRTrial.thisIndex,typingRTrial.ran,correct,respMousePrac.x,respMousePrac.y,respMousePrac.leftButton,respMousePrac.midButton,respMousePrac.rightButton,vptLoopPrac.thisRepN,vptLoopPrac.thisTrialN,vptLoopPrac.thisN,vptLoopPrac.thisIndex,vptLoopPrac.ran,tiles,rows,cols,vptCorrect,respMouse.x,respMouse.y,respMouse.leftButton,respMouse.midButton,respMouse.rightButton,trials.thisRepN,trials.thisTrialN,trials.thisN,trials.thisIndex,trials.ran,noOfBlocks,blockDuration,conditionLoop.thisRepN,conditionLoop.thisTrialN,conditionLoop.thisN,conditionLoop.thisIndex,conditionLoop.ran,sheet,readyMsg,TaskC.thisRepN,TaskC.thisTrialN,TaskC.thisN,TaskC.thisIndex,TaskC.ran,TaskOrderCond.thisRepN,TaskOrderCond.thisTrialN,TaskOrderCond.thisN,TaskOrderCond.thisIndex,TaskOrderCond.ran,nRepsTask1,nRepsTask2,nRepsTask3,typedAudioPrac,audioPracRT,audioPrCorr,audioLoopPrac.thisRepN,audioLoopPrac.thisTrialN,audioLoopPrac.thisN,audioLoopPrac.thisIndex,audioLoopPrac.ran,audiospan,digits_audio,soundsJS,EgnerDSresponse,EgnerDSrt,EgnerDSscore,audioRTrial.thisRepN,audioRTrial.thisTrialN,audioRTrial.thisN,audioRTrial.thisIndex,audioRTrial.ran,digitSpan,audioCondLoop.thisRepN,audioCondLoop.thisTrialN,audioCondLoop.thisN,audioCondLoop.thisIndex,audioCondLoop.ran,Condition,WAISDSresponse,WAISDSrt,WAISDSscore,audioRTrialwais.thisRepN,audioRTrialwais.thisTrialN,audioRTrialwais.thisN,audioRTrialwais.thisIndex,audioRTrialwais.ran,digitSpanWAIS,digits_audioWAIS,soundsWAIS,audioCondLoopwais.thisRepN,audioCondLoopwais.thisTrialN,audioCondLoopwais.thisN,audioCondLoopwais.thisIndex,audioCondLoopwais.ran,ConditionWAIS,TaskB.thisRepN,TaskB.thisTrialN,TaskB.thisN,TaskB.thisIndex,TaskB.ran,typedAnswer,multiplyRT,multiplyCorr,multiLoopPrac.thisRepN,multiLoopPrac.thisTrialN,multiLoopPrac.thisN,multiLoopPrac.thisIndex,multiLoopPrac.ran,problem,OperandType,productType,Answer,multiRTrial.thisRepN,multiRTrial.thisTrialN,multiRTrial.thisN,multiRTrial.thisIndex,multiRTrial.ran,trials_2.thisRepN,trials_2.thisTrialN,trials_2.thisN,trials_2.thisIndex,trials_2.ran,fileee,TaskA.thisRepN,TaskA.thisTrialN,TaskA.thisN,TaskA.thisIndex,TaskA.ran
41,2.372775,1,0,0,0,1,1,41,929,001,CBA,2021-05-20_00h33.36.087,workingMemoryTest,2020.2.10,MacIntel,60,,,,,,,,,,,,,,,,,,,,,,,,,,,,,,,,,,,,,,,,,,,,,,,,,,,,,,,,,,,,,,,,,,,,,,,,,,,,,,,,,,,,,,,,,,,,,,,,,,,,,,,,,,,,,,,,,,,,,,,,,,,,,,,,
39,1.40576,1,0,1,1,0,1,39,929,001,CBA,2021-05-20_00h33.36.087,workingMemoryTest,2020.2.10,MacIntel,60,,,,,,,,,,,,,,,,,,,,,,,,,,,,,,,,,,,,,,,,,,,,,,,,,,,,,,,,,,,,,,,,,,,,,,,,,,,,,,,,,,,,,,,,,,,,,,,,,,,,,,,,,,,,,,,,,,,,,,,,,,,,,,,,
59,1.385205,1,0,2,2,2,1,59,929,001,CBA,2021-05-20_00h33.36.087,workingMemoryTest,2020.2.10,MacIntel,60,,,,,,,,,,,,,,,,,,,,,,,,,,,,,,,,,,,,,,,,,,,,,,,,,,,,,,,,,,,,,,,,,,,,,,,,,,,,,,,,,,,,,,,,,,,,,,,,,,,,,,,,,,,,,,,,,,,,,,,,,,,,,,,,
15,1.253185,1,,,,,,15,929,001,CBA,2021-05-20_00h33.36.087,workingMemoryTest,2020.2.10,MacIntel,60,0,0,0,6,1,,,,,,,,,,,,,,,,,,,,,,,,,,,,,,,,,,,,,,,,,,,,,,,,,,,,,,,,,,,,,,,,,,,,,,,,,,,,,,,,,,,,,,,,,,,,,,,,,,,,,,,,,,,,,,,,,,,,,,,,,,,
18,1.150695,1,,,,,,18,929,001,CBA,2021-05-20_00h33.36.087,workingMemoryTest,2020.2.10,MacIntel,60,0,1,1,8,1,,,,,,,,,,,,,,,,,,,,,,,,,,,,,,,,,,,,,,,,,,,,,,,,,,,,,,,,,,,,,,,,,,,,,,,,,,,,,,,,,,,,,,,,,,,,,,,,,,,,,,,,,,,,,,,,,,,,,,,,,,,
72,1.26957,1,,,,,,72,929,001,CBA,2021-05-20_00h33.36.087,workingMemoryTest,2020.2.10,MacIntel,60,0,2,2,27,1,,,,,,,,,,,,,,,,,,,,,,,,,,,,,,,,,,,,,,,,,,,,,,,,,,,,,,,,,,,,,,,,,,,,,,,,,,,,,,,,,,,,,,,,,,,,,,,,,,,,,,,,,,,,,,,,,,,,,,,,,,,
8,1.16807,1,,,,,,8,929,001,CBA,2021-05-20_00h33.36.087,workingMemoryTest,2020.2.10,MacIntel,60,0,3,3,2,1,,,,,,,,,,,,,,,,,,,,,,,,,,,,,,,,,,,,,,,,,,,,,,,,,,,,,,,,,,,,,,,,,,,,,,,,,,,,,,,,,,,,,,,,,,,,,,,,,,,,,,,,,,,,,,,,,,,,,,,,,,,
36,1.53773,1,,,,,,36,929,001,CBA,2021-05-20_00h33.36.087,workingMemoryTest,2020.2.10,MacIntel,60,0,4,4,17,1,,,,,,,,,,,,,,,,,,,,,,,,,,,,,,,,,,,,,,,,,,,,,,,,,,,,,,,,,,,,,,,,,,,,,,,,,,,,,,,,,,,,,,,,,,,,,,,,,,,,,,,,,,,,,,,,,,,,,,,,,,,
24,1.136195,1,,,,,,24,929,001,CBA,2021-05-20_00h33.36.087,workingMemoryTest,2020.2.10,MacIntel,60,0,5,5,11,1,,,,,,,,,,,,,,,,,,,,,,,,,,,,,,,,,,,,,,,,,,,,,,,,,,,,,,,,,,,,,,,,,,,,,,,,,,,,,,,,,,,,,,,,,,,,,,,,,,,,,,,,,,,,,,,,,,,,,,,,,,,
16,1.05301,1,,,,,,16,929,001,CBA,2021-05-20_00h33.36.087,workingMemoryTest,2020.2.10,MacIntel,60,0,6,6,7,1,,,,,,,,,,,,,,,,,,,,,,,,,,,,,,,,,,,,,,,,,,,,,,,,,,,,,,,,,,,,,,,,,,,,,,,,,,,,,,,,,,,,,,,,,,,,,,,,,,,,,,,,,,,,,,,,,,,,,,,,,,,
27,1.13625,1,,,,,,27,929,001,CBA,2021-05-20_00h33.36.087,workingMemoryTest,2020.2.10,MacIntel,60,0,7,7,12,1,,,,,,,,,,,,,,,,,,,,,,,,,,,,,,,,,,,,,,,,,,,,,,,,,,,,,,,,,,,,,,,,,,,,,,,,,,,,,,,,,,,,,,,,,,,,,,,,,,,,,,,,,,,,,,,,,,,,,,,,,,,
10,1.08832,1,,,,,,10,929,001,CBA,2021-05-20_00h33.36.087,workingMemoryTest,2020.2.10,MacIntel,60,0,8,8,3,1,,,,,,,,,,,,,,,,,,,,,,,,,,,,,,,,,,,,,,,,,,,,,,,,,,,,,,,,,,,,,,,,,,,,,,,,,,,,,,,,,,,,,,,,,,,,,,,,,,,,,,,,,,,,,,,,,,,,,,,,,,,
21,0.88538,1,,,,,,21,929,001,CBA,2021-05-20_00h33.36.087,workingMemoryTest,2020.2.10,MacIntel,60,0,9,9,10,1,,,,,,,,,,,,,,,,,,,,,,,,,,,,,,,,,,,,,,,,,,,,,,,,,,,,,,,,,,,,,,,,,,,,,,,,,,,,,,,,,,,,,,,,,,,,,,,,,,,,,,,,,,,,,,,,,,,,,,,,,,,
12,0.88573,1,,,,,,12,929,001,CBA,2021-05-20_00h33.36.087,workingMemoryTest,2020.2.10,MacIntel,60,0,10,10,4,1,,,,,,,,,,,,,,,,,,,,,,,,,,,,,,,,,,,,,,,,,,,,,,,,,,,,,,,,,,,,,,,,,,,,,,,,,,,,,,,,,,,,,,,,,,,,,,,,,,,,,,,,,,,,,,,,,,,,,,,,,,,
6,1.03586,1,,,,,,6,929,001,CBA,2021-05-20_00h33.36.087,workingMemoryTest,2020.2.10,MacIntel,60,0,11,11,0,1,,,,,,,,,,,,,,,,,,,,,,,,,,,,,,,,,,,,,,,,,,,,,,,,,,,,,,,,,,,,,,,,,,,,,,,,,,,,,,,,,,,,,,,,,,,,,,,,,,,,,,,,,,,,,,,,,,,,,,,,,,,
30,1.251385,1,,,,,,30,929,001,CBA,2021-05-20_00h33.36.087,workingMemoryTest,2020.2.10,MacIntel,60,0,12,12,14,1,,,,,,,,,,,,,,,,,,,,,,,,,,,,,,,,,,,,,,,,,,,,,,,,,,,,,,,,,,,,,,,,,,,,,,,,,,,,,,,,,,,,,,,,,,,,,,,,,,,,,,,,,,,,,,,,,,,,,,,,,,,
9,1.02156,1,,,,,,9,929,001,CBA,2021-05-20_00h33.36.087,workingMemoryTest,2020.2.10,MacIntel,60,0,13,13,1,1,,,,,,,,,,,,,,,,,,,,,,,,,,,,,,,,,,,,,,,,,,,,,,,,,,,,,,,,,,,,,,,,,,,,,,,,,,,,,,,,,,,,,,,,,,,,,,,,,,,,,,,,,,,,,,,,,,,,,,,,,,,
48,1.28902,1,,,,,,48,929,001,CBA,2021-05-20_00h33.36.087,workingMemoryTest,2020.2.10,MacIntel,60,0,14,14,21,1,,,,,,,,,,,,,,,,,,,,,,,,,,,,,,,,,,,,,,,,,,,,,,,,,,,,,,,,,,,,,,,,,,,,,,,,,,,,,,,,,,,,,,,,,,,,,,,,,,,,,,,,,,,,,,,,,,,,,,,,,,,
49,1.62159,1,,,,,,49,929,001,CBA,2021-05-20_00h33.36.087,workingMemoryTest,2020.2.10,MacIntel,60,0,15,15,22,1,,,,,,,,,,,,,,,,,,,,,,,,,,,,,,,,,,,,,,,,,,,,,,,,,,,,,,,,,,,,,,,,,,,,,,,,,,,,,,,,,,,,,,,,,,,,,,,,,,,,,,,,,,,,,,,,,,,,,,,,,,,
28,1.1871,1,,,,,,28,929,001,CBA,2021-05-20_00h33.36.087,workingMemoryTest,2020.2.10,MacIntel,60,0,16,16,13,1,,,,,,,,,,,,,,,,,,,,,,,,,,,,,,,,,,,,,,,,,,,,,,,,,,,,,,,,,,,,,,,,,,,,,,,,,,,,,,,,,,,,,,,,,,,,,,,,,,,,,,,,,,,,,,,,,,,,,,,,,,,
32,0.986045,1,,,,,,32,929,001,CBA,2021-05-20_00h33.36.087,workingMemoryTest,2020.2.10,MacIntel,60,0,17,17,15,1,,,,,,,,,,,,,,,,,,,,,,,,,,,,,,,,,,,,,,,,,,,,,,,,,,,,,,,,,,,,,,,,,,,,,,,,,,,,,,,,,,,,,,,,,,,,,,,,,,,,,,,,,,,,,,,,,,,,,,,,,,,
42,1.103255,1,,,,,,42,929,001,CBA,2021-05-20_00h33.36.087,workingMemoryTest,2020.2.10,MacIntel,60,0,18,18,19,1,,,,,,,,,,,,,,,,,,,,,,,,,,,,,,,,,,,,,,,,,,,,,,,,,,,,,,,,,,,,,,,,,,,,,,,,,,,,,,,,,,,,,,,,,,,,,,,,,,,,,,,,,,,,,,,,,,,,,,,,,,,
14,0.98589,1,,,,,,14,929,001,CBA,2021-05-20_00h33.36.087,workingMemoryTest,2020.2.10,MacIntel,60,0,19,19,5,1,,,,,,,,,,,,,,,,,,,,,,,,,,,,,,,,,,,,,,,,,,,,,,,,,,,,,,,,,,,,,,,,,,,,,,,,,,,,,,,,,,,,,,,,,,,,,,,,,,,,,,,,,,,,,,,,,,,,,,,,,,,
20,1.08069,1,,,,,,20,929,001,CBA,2021-05-20_00h33.36.087,workingMemoryTest,2020.2.10,MacIntel,60,0,20,20,9,1,,,,,,,,,,,,,,,,,,,,,,,,,,,,,,,,,,,,,,,,,,,,,,,,,,,,,,,,,,,,,,,,,,,,,,,,,,,,,,,,,,,,,,,,,,,,,,,,,,,,,,,,,,,,,,,,,,,,,,,,,,,
45,1.13391,1,,,,,,45,929,001,CBA,2021-05-20_00h33.36.087,workingMemoryTest,2020.2.10,MacIntel,60,0,21,21,20,1,,,,,,,,,,,,,,,,,,,,,,,,,,,,,,,,,,,,,,,,,,,,,,,,,,,,,,,,,,,,,,,,,,,,,,,,,,,,,,,,,,,,,,,,,,,,,,,,,,,,,,,,,,,,,,,,,,,,,,,,,,,
56,2.040915,1,,,,,,56,929,001,CBA,2021-05-20_00h33.36.087,workingMemoryTest,2020.2.10,MacIntel,60,0,22,22,24,1,,,,,,,,,,,,,,,,,,,,,,,,,,,,,,,,,,,,,,,,,,,,,,,,,,,,,,,,,,,,,,,,,,,,,,,,,,,,,,,,,,,,,,,,,,,,,,,,,,,,,,,,,,,,,,,,,,,,,,,,,,,
35,1.169405,1,,,,,,35,929,001,CBA,2021-05-20_00h33.36.087,workingMemoryTest,2020.2.10,MacIntel,60,0,23,23,16,1,,,,,,,,,,,,,,,,,,,,,,,,,,,,,,,,,,,,,,,,,,,,,,,,,,,,,,,,,,,,,,,,,,,,,,,,,,,,,,,,,,,,,,,,,,,,,,,,,,,,,,,,,,,,,,,,,,,,,,,,,,,
3,1.200925,0,,,,,,40,929,001,CBA,2021-05-20_00h33.36.087,workingMemoryTest,2020.2.10,MacIntel,60,0,24,24,18,1,,,,,,,,,,,,,,,,,,,,,,,,,,,,,,,,,,,,,,,,,,,,,,,,,,,,,,,,,,,,,,,,,,,,,,,,,,,,,,,,,,,,,,,,,,,,,,,,,,,,,,,,,,,,,,,,,,,,,,,,,,,
63,1.736875,1,,,,,,63,929,001,CBA,2021-05-20_00h33.36.087,workingMemoryTest,2020.2.10,MacIntel,60,0,25,25,25,1,,,,,,,,,,,,,,,,,,,,,,,,,,,,,,,,,,,,,,,,,,,,,,,,,,,,,,,,,,,,,,,,,,,,,,,,,,,,,,,,,,,,,,,,,,,,,,,,,,,,,,,,,,,,,,,,,,,,,,,,,,,
54,1.15363,1,,,,,,54,929,001,CBA,2021-05-20_00h33.36.087,workingMemoryTest,2020.2.10,MacIntel,60,0,26,26,23,1,,,,,,,,,,,,,,,,,,,,,,,,,,,,,,,,,,,,,,,,,,,,,,,,,,,,,,,,,,,,,,,,,,,,,,,,,,,,,,,,,,,,,,,,,,,,,,,,,,,,,,,,,,,,,,,,,,,,,,,,,,,
64,1.354205,1,,,,,,64,929,001,CBA,2021-05-20_00h33.36.087,workingMemoryTest,2020.2.10,MacIntel,60,0,27,27,26,1,,,,,,,,,,,,,,,,,,,,,,,,,,,,,,,,,,,,,,,,,,,,,,,,,,,,,,,,,,,,,,,,,,,,,,,,,,,,,,,,,,,,,,,,,,,,,,,,,,,,,,,,,,,,,,,,,,,,,,,,,,,
,,,,,,,,,929,001,CBA,2021-05-20_00h33.36.087,workingMemoryTest,2020.2.10,MacIntel,60,,,,,,FALSE,-0.014822049,-0.344713542,1,0,0,0,0,0,0,1,,3,3,,,,,,,,,,,,,,,,,,,,,,,,,,,,,,,,,,,,,,,,,,,,,,,,,,,,,,,,,,,,,,,,,,,,,,,,,,,,,,,,,,,,,,,,,,,,,,,,,,,,,,,,,,,,,
,,,,,,,,,929,001,CBA,2021-05-20_00h33.36.087,workingMemoryTest,2020.2.10,MacIntel,60,,,,,,TRUE,0.017578125,-0.332717014,1,0,0,0,1,1,1,1,,3,3,,,,,,,,,,,,,,,,,,,,,,,,,,,,,,,,,,,,,,,,,,,,,,,,,,,,,,,,,,,,,,,,,,,,,,,,,,,,,,,,,,,,,,,,,,,,,,,,,,,,,,,,,,,,,
,,,,,,,,,929,001,CBA,2021-05-20_00h33.36.087,workingMemoryTest,2020.2.10,MacIntel,60,,,,,,TRUE,-0.001432292,-0.382868924,1,0,0,0,2,2,2,1,,3,3,,,,,,,,,,,,,,,,,,,,,,,,,,,,,,,,,,,,,,,,,,,,,,,,,,,,,,,,,,,,,,,,,,,,,,,,,,,,,,,,,,,,,,,,,,,,,,,,,,,,,,,,,,,,,
,,,,,,,,,929,001,CBA,2021-05-20_00h33.36.087,workingMemoryTest,2020.2.10,MacIntel,60,,,,,,,,,,,,,,,,,,2,2,TRUE,-0.041692708,-0.350698785,1,0,0,0,0,0,0,1,2,2,,,,,,,,,,,,,,,,,,,,,,,,,,,,,,,,,,,,,,,,,,,,,,,,,,,,,,,,,,,,,,,,,,,,,,,,,,,,,,,,,,,,,,,,,,,,,,,,
,,,,,,,,,929,001,CBA,2021-05-20_00h33.36.087,workingMemoryTest,2020.2.10,MacIntel,60,,,,,,,,,,,,,,,,,,2,2,TRUE,-0.02281684,-0.341111111,1,0,0,0,1,1,1,1,2,2,,,,,,,,,,,,,,,,,,,,,,,,,,,,,,,,,,,,,,,,,,,,,,,,,,,,,,,,,,,,,,,,,,,,,,,,,,,,,,,,,,,,,,,,,,,,,,,,
,,,,,,,,,929,001,CBA,2021-05-20_00h33.36.087,workingMemoryTest,2020.2.10,MacIntel,60,,,,,,,,,,,,,,,,,,2,2,TRUE,-0.067521701,-0.342044271,1,0,0,0,2,2,2,1,2,2,,,,,,,,,,,,,,,,,,,,,,,,,,,,,,,,,,,,,,,,,,,,,,,,,,,,,,,,,,,,,,,,,,,,,,,,,,,,,,,,,,,,,,,,,,,,,,,,
,,,,,,,,,929,001,CBA,2021-05-20_00h33.36.087,workingMemoryTest,2020.2.10,MacIntel,60,,,,,,,,,,,,,,,,,,,,,,,,,,,,,,,,,0,0,0,0,1,blockTwo.xlsx,Ready for the next set? ,,,,,,,,,,,,,,,,,,,,,,,,,,,,,,,,,,,,,,,,,,,,,,,,,,,,,,,,,,,,,,,,,,,,,,,,,,,,,,,,,,,,,,,,,
,,,,,,,,,929,001,CBA,2021-05-20_00h33.36.087,workingMemoryTest,2020.2.10,MacIntel,60,,,,,,,,,,,,,,,,,,3,3,TRUE,0.023059896,-0.333988715,1,0,0,0,0,0,0,1,3,2,,,,,,,,,,,,,,,,,,,,,,,,,,,,,,,,,,,,,,,,,,,,,,,,,,,,,,,,,,,,,,,,,,,,,,,,,,,,,,,,,,,,,,,,,,,,,,,,
,,,,,,,,,929,001,CBA,2021-05-20_00h33.36.087,workingMemoryTest,2020.2.10,MacIntel,60,,,,,,,,,,,,,,,,,,3,3,TRUE,-0.032725694,-0.326358507,1,0,0,0,1,1,1,1,3,2,,,,,,,,,,,,,,,,,,,,,,,,,,,,,,,,,,,,,,,,,,,,,,,,,,,,,,,,,,,,,,,,,,,,,,,,,,,,,,,,,,,,,,,,,,,,,,,,
,,,,,,,,,929,001,CBA,2021-05-20_00h33.36.087,workingMemoryTest,2020.2.10,MacIntel,60,,,,,,,,,,,,,,,,,,3,3,TRUE,0.006085069,-0.318012153,1,0,0,0,2,2,2,1,3,2,,,,,,,,,,,,,,,,,,,,,,,,,,,,,,,,,,,,,,,,,,,,,,,,,,,,,,,,,,,,,,,,,,,,,,,,,,,,,,,,,,,,,,,,,,,,,,,,
,,,,,,,,,929,001,CBA,2021-05-20_00h33.36.087,workingMemoryTest,2020.2.10,MacIntel,60,,,,,,,,,,,,,,,,,,,,,,,,,,,,,,,,,0,1,1,1,1,blockThree.xlsx,Ready for the next set? ,,,,,,,,,,,,,,,,,,,,,,,,,,,,,,,,,,,,,,,,,,,,,,,,,,,,,,,,,,,,,,,,,,,,,,,,,,,,,,,,,,,,,,,,,
,,,,,,,,,929,001,CBA,2021-05-20_00h33.36.087,workingMemoryTest,2020.2.10,MacIntel,60,,,,,,,,,,,,,,,,,,3,3,TRUE,-0.025030382,-0.335594618,1,0,0,0,0,0,0,1,4,2,,,,,,,,,,,,,,,,,,,,,,,,,,,,,,,,,,,,,,,,,,,,,,,,,,,,,,,,,,,,,,,,,,,,,,,,,,,,,,,,,,,,,,,,,,,,,,,,
,,,,,,,,,929,001,CBA,2021-05-20_00h33.36.087,workingMemoryTest,2020.2.10,MacIntel,60,,,,,,,,,,,,,,,,,,3,3,TRUE,-0.031796875,-0.325733507,1,0,0,0,1,1,1,1,4,2,,,,,,,,,,,,,,,,,,,,,,,,,,,,,,,,,,,,,,,,,,,,,,,,,,,,,,,,,,,,,,,,,,,,,,,,,,,,,,,,,,,,,,,,,,,,,,,,
,,,,,,,,,929,001,CBA,2021-05-20_00h33.36.087,workingMemoryTest,2020.2.10,MacIntel,60,,,,,,,,,,,,,,,,,,3,3,TRUE,-0.03125,-0.355451389,1,0,0,0,2,2,2,1,4,2,,,,,,,,,,,,,,,,,,,,,,,,,,,,,,,,,,,,,,,,,,,,,,,,,,,,,,,,,,,,,,,,,,,,,,,,,,,,,,,,,,,,,,,,,,,,,,,,
,,,,,,,,,929,001,CBA,2021-05-20_00h33.36.087,workingMemoryTest,2020.2.10,MacIntel,60,,,,,,,,,,,,,,,,,,,,,,,,,,,,,,,,,0,2,2,2,1,blockFour.xlsx,Ready for the next set? ,,,,,,,,,,,,,,,,,,,,,,,,,,,,,,,,,,,,,,,,,,,,,,,,,,,,,,,,,,,,,,,,,,,,,,,,,,,,,,,,,,,,,,,,,
,,,,,,,,,929,001,CBA,2021-05-20_00h33.36.087,workingMemoryTest,2020.2.10,MacIntel,60,,,,,,,,,,,,,,,,,,4,4,TRUE,-0.090065104,-0.347977431,1,0,0,0,0,0,0,1,5,,,,,,,,,,,,,,,,,,,,,,,,,,,,,,,,,,,,,,,,,,,,,,,,,,,,,,,,,,,,,,,,,,,,,,,,,,,,,,,,,,,,,,,,,,,,,,,,,
,,,,,,,,,929,001,CBA,2021-05-20_00h33.36.087,workingMemoryTest,2020.2.10,MacIntel,60,,,,,,,,,,,,,,,,,,4,4,TRUE,-0.043454861,-0.345325521,1,0,0,0,1,1,1,1,5,,,,,,,,,,,,,,,,,,,,,,,,,,,,,,,,,,,,,,,,,,,,,,,,,,,,,,,,,,,,,,,,,,,,,,,,,,,,,,,,,,,,,,,,,,,,,,,,,
,,,,,,,,,929,001,CBA,2021-05-20_00h33.36.087,workingMemoryTest,2020.2.10,MacIntel,60,,,,,,,,,,,,,,,,,,4,4,TRUE,-0.0890625,-0.326150174,1,0,0,0,2,2,2,1,5,,,,,,,,,,,,,,,,,,,,,,,,,,,,,,,,,,,,,,,,,,,,,,,,,,,,,,,,,,,,,,,,,,,,,,,,,,,,,,,,,,,,,,,,,,,,,,,,,
,,,,,,,,,929,001,CBA,2021-05-20_00h33.36.087,workingMemoryTest,2020.2.10,MacIntel,60,,,,,,,,,,,,,,,,,,,,,,,,,,,,,,,,,0,3,3,3,1,blockFive.xlsx,Ready for the next set? ,,,,,,,,,,,,,,,,,,,,,,,,,,,,,,,,,,,,,,,,,,,,,,,,,,,,,,,,,,,,,,,,,,,,,,,,,,,,,,,,,,,,,,,,,
,,,,,,,,,929,001,CBA,2021-05-20_00h33.36.087,workingMemoryTest,2020.2.10,MacIntel,60,,,,,,,,,,,,,,,,,,4,4,TRUE,-0.046953125,-0.334561632,1,0,0,0,0,0,0,1,6,,,,,,,,,,,,,,,,,,,,,,,,,,,,,,,,,,,,,,,,,,,,,,,,,,,,,,,,,,,,,,,,,,,,,,,,,,,,,,,,,,,,,,,,,,,,,,,,,
,,,,,,,,,929,001,CBA,2021-05-20_00h33.36.087,workingMemoryTest,2020.2.10,MacIntel,60,,,,,,,,,,,,,,,,,,4,4,TRUE,-0.050368924,-0.339809028,1,0,0,0,1,1,1,1,6,,,,,,,,,,,,,,,,,,,,,,,,,,,,,,,,,,,,,,,,,,,,,,,,,,,,,,,,,,,,,,,,,,,,,,,,,,,,,,,,,,,,,,,,,,,,,,,,,
,,,,,,,,,929,001,CBA,2021-05-20_00h33.36.087,workingMemoryTest,2020.2.10,MacIntel,60,,,,,,,,,,,,,,,,,,4,4,TRUE,-0.079331597,-0.350195313,1,0,0,0,2,2,2,1,6,,,,,,,,,,,,,,,,,,,,,,,,,,,,,,,,,,,,,,,,,,,,,,,,,,,,,,,,,,,,,,,,,,,,,,,,,,,,,,,,,,,,,,,,,,,,,,,,,
,,,,,,,,,929,001,CBA,2021-05-20_00h33.36.087,workingMemoryTest,2020.2.10,MacIntel,60,,,,,,,,,,,,,,,,,,,,,,,,,,,,,,,,,0,4,4,4,1,blockSix.xlsx,Ready for the next set? ,,,,,,,,,,,,,,,,,,,,,,,,,,,,,,,,,,,,,,,,,,,,,,,,,,,,,,,,,,,,,,,,,,,,,,,,,,,,,,,,,,,,,,,,,
,,,,,,,,,929,001,CBA,2021-05-20_00h33.36.087,workingMemoryTest,2020.2.10,MacIntel,60,,,,,,,,,,,,,,,,,,4,4,TRUE,-0.00187934,-0.367443576,1,0,0,0,0,0,0,1,7,,,,,,,,,,,,,,,,,,,,,,,,,,,,,,,,,,,,,,,,,,,,,,,,,,,,,,,,,,,,,,,,,,,,,,,,,,,,,,,,,,,,,,,,,,,,,,,,,
,,,,,,,,,929,001,CBA,2021-05-20_00h33.36.087,workingMemoryTest,2020.2.10,MacIntel,60,,,,,,,,,,,,,,,,,,4,4,TRUE,-0.006727431,-0.342304687,1,0,0,0,1,1,1,1,7,,,,,,,,,,,,,,,,,,,,,,,,,,,,,,,,,,,,,,,,,,,,,,,,,,,,,,,,,,,,,,,,,,,,,,,,,,,,,,,,,,,,,,,,,,,,,,,,,
,,,,,,,,,929,001,CBA,2021-05-20_00h33.36.087,workingMemoryTest,2020.2.10,MacIntel,60,,,,,,,,,,,,,,,,,,4,4,FALSE,-0.046922743,-0.323498264,1,0,0,0,2,2,2,1,7,,,,,,,,,,,,,,,,,,,,,,,,,,,,,,,,,,,,,,,,,,,,,,,,,,,,,,,,,,,,,,,,,,,,,,,,,,,,,,,,,,,,,,,,,,,,,,,,,
,,,,,,,,,929,001,CBA,2021-05-20_00h33.36.087,workingMemoryTest,2020.2.10,MacIntel,60,,,,,,,,,,,,,,,,,,,,,,,,,,,,,,,,,0,5,5,5,1,blockSeven.xlsx,Ready for the next set? ,,,,,,,,,,,,,,,,,,,,,,,,,,,,,,,,,,,,,,,,,,,,,,,,,,,,,,,,,,,,,,,,,,,,,,,,,,,,,,,,,,,,,,,,,
,,,,,,,,,929,001,CBA,2021-05-20_00h33.36.087,workingMemoryTest,2020.2.10,MacIntel,60,,,,,,,,,,,,,,,,,,4,4,TRUE,0.006293403,-0.369752604,1,0,0,0,0,0,0,1,8,,,,,,,,,,,,,,,,,,,,,,,,,,,,,,,,,,,,,,,,,,,,,,,,,,,,,,,,,,,,,,,,,,,,,,,,,,,,,,,,,,,,,,,,,,,,,,,,,
,,,,,,,,,929,001,CBA,2021-05-20_00h33.36.087,workingMemoryTest,2020.2.10,MacIntel,60,,,,,,,,,,,,,,,,,,4,4,TRUE,0.017712674,-0.341575521,1,0,0,0,1,1,1,1,8,,,,,,,,,,,,,,,,,,,,,,,,,,,,,,,,,,,,,,,,,,,,,,,,,,,,,,,,,,,,,,,,,,,,,,,,,,,,,,,,,,,,,,,,,,,,,,,,,
,,,,,,,,,929,001,CBA,2021-05-20_00h33.36.087,workingMemoryTest,2020.2.10,MacIntel,60,,,,,,,,,,,,,,,,,,4,4,TRUE,0.032230903,-0.347061632,1,0,0,0,2,2,2,1,8,,,,,,,,,,,,,,,,,,,,,,,,,,,,,,,,,,,,,,,,,,,,,,,,,,,,,,,,,,,,,,,,,,,,,,,,,,,,,,,,,,,,,,,,,,,,,,,,,
,,,,,,,,,929,001,CBA,2021-05-20_00h33.36.087,workingMemoryTest,2020.2.10,MacIntel,60,,,,,,,,,,,,,,,,,,,,,,,,,,,,,,,,,0,6,6,6,1,blockEight.xlsx,Ready for the next set? ,,,,,,,,,,,,,,,,,,,,,,,,,,,,,,,,,,,,,,,,,,,,,,,,,,,,,,,,,,,,,,,,,,,,,,,,,,,,,,,,,,,,,,,,,
,,,,,,,,,929,001,CBA,2021-05-20_00h33.36.087,workingMemoryTest,2020.2.10,MacIntel,60,,,,,,,,,,,,,,,,,,5,5,TRUE,-0.025520833,-0.371701389,1,0,0,0,0,0,0,1,9,,,,,,,,,,,,,,,,,,,,,,,,,,,,,,,,,,,,,,,,,,,,,,,,,,,,,,,,,,,,,,,,,,,,,,,,,,,,,,,,,,,,,,,,,,,,,,,,,
,,,,,,,,,929,001,CBA,2021-05-20_00h33.36.087,workingMemoryTest,2020.2.10,MacIntel,60,,,,,,,,,,,,,,,,,,5,5,TRUE,0.050499132,-0.329331597,1,0,0,0,1,1,1,1,9,,,,,,,,,,,,,,,,,,,,,,,,,,,,,,,,,,,,,,,,,,,,,,,,,,,,,,,,,,,,,,,,,,,,,,,,,,,,,,,,,,,,,,,,,,,,,,,,,
,,,,,,,,,929,001,CBA,2021-05-20_00h33.36.087,workingMemoryTest,2020.2.10,MacIntel,60,,,,,,,,,,,,,,,,,,5,5,FALSE,-0.029184028,-0.360030382,1,0,0,0,2,2,2,1,9,,,,,,,,,,,,,,,,,,,,,,,,,,,,,,,,,,,,,,,,,,,,,,,,,,,,,,,,,,,,,,,,,,,,,,,,,,,,,,,,,,,,,,,,,,,,,,,,,
,,,,,,,,,929,001,CBA,2021-05-20_00h33.36.087,workingMemoryTest,2020.2.10,MacIntel,60,,,,,,,,,,,,,,,,,,,,,,,,,,,,,,,,,0,7,7,7,1,blockNine.xlsx,Ready for the next set? ,,,,,,,,,,,,,,,,,,,,,,,,,,,,,,,,,,,,,,,,,,,,,,,,,,,,,,,,,,,,,,,,,,,,,,,,,,,,,,,,,,,,,,,,,
,,,,,,,,,929,001,CBA,2021-05-20_00h33.36.087,workingMemoryTest,2020.2.10,MacIntel,60,,,,,,,,,,,,,,,,,,5,5,FALSE,0.040290799,-0.370017361,1,0,0,0,0,0,0,1,10,,,,,,,,,,,,,,,,,,,,,,,,,,,,,,,,,,,,,,,,,,,,,,,,,,,,,,,,,,,,,,,,,,,,,,,,,,,,,,,,,,,,,,,,,,,,,,,,,
,,,,,,,,,929,001,CBA,2021-05-20_00h33.36.087,workingMemoryTest,2020.2.10,MacIntel,60,,,,,,,,,,,,,,,,,,5,5,FALSE,0.015325521,-0.346102431,1,0,0,0,1,1,1,1,10,,,,,,,,,,,,,,,,,,,,,,,,,,,,,,,,,,,,,,,,,,,,,,,,,,,,,,,,,,,,,,,,,,,,,,,,,,,,,,,,,,,,,,,,,,,,,,,,,
,,,,,,,,,929,001,CBA,2021-05-20_00h33.36.087,workingMemoryTest,2020.2.10,MacIntel,60,,,,,,,,,,,,,,,,,,,,,,,,,,,,,,,,,,,,,,,,0,0,0,0,1,,,,,,,,,,,,,,,,,,,,,,,,,,,,,,,,,,,,,,,,,,,,,,,,,,,,,,,,,,,,,,,,,,,,,,,,,,,,,,,,,,,,
,,,,,,,,,929,001,CBA,2021-05-20_00h33.36.087,workingMemoryTest,2020.2.10,MacIntel,60,,,,,,,,,,,,,,,,,,,,,,,,,,,,,,,,,,,,,,,,,,,,,0,0,0,0,1,0,0,1,,,,,,,,,,,,,,,,,,,,,,,,,,,,,,,,,,,,,,,,,,,,,,,,,,,,,,,,,,,,,,,,,,,,,,,,,,,,
,,,,,,,,,929,001,CBA,2021-05-20_00h33.36.087,workingMemoryTest,2020.2.10,MacIntel,60,,,,,,,,,,,,,,,,,,,,,,,,,,,,,,,,,,,,,,,,,,,,,,,,,,,,,123,1.586135,1,0,0,0,0,1,practice,123,Audio/123.mp3,,,,,,,,,,,,,,,,,,,,,,,,,,,,,,,,,,,,,,,,,,,,,,,,,,,,,,,,,,,,,,,,,
,,,,,,,,,929,001,CBA,2021-05-20_00h33.36.087,workingMemoryTest,2020.2.10,MacIntel,60,,,,,,,,,,,,,,,,,,,,,,,,,,,,,,,,,,,,,,,,,,,,,,,,,,,,,321,0.90225,1,0,1,1,1,1,practice,321,Audio/321.mp3,,,,,,,,,,,,,,,,,,,,,,,,,,,,,,,,,,,,,,,,,,,,,,,,,,,,,,,,,,,,,,,,,
,,,,,,,,,929,001,CBA,2021-05-20_00h33.36.087,workingMemoryTest,2020.2.10,MacIntel,60,,,,,,,,,,,,,,,,,,,,,,,,,,,,,,,,,,,,,,,,,,,,,,,,,,,,,911,1.038215,1,0,2,2,2,1,practice,911,Audio/911.mp3,,,,,,,,,,,,,,,,,,,,,,,,,,,,,,,,,,,,,,,,,,,,,,,,,,,,,,,,,,,,,,,,,
,,,,,,,,,929,001,CBA,2021-05-20_00h33.36.087,workingMemoryTest,2020.2.10,MacIntel,60,,,,,,,,,,,,,,,,,,,,,,,,,,,,,,,,,,,,,,,,,,,,,,,,,,,,,,,,,,,,,,46,Audio/46.mp3,46,2.58919,1,0,0,0,0,1,2,,,,,,,,,,,,,,,,,,,,,,,,,,,,,,,,,,,,,,,,,,,,,,,,,,,,,,,,
,,,,,,,,,929,001,CBA,2021-05-20_00h33.36.087,workingMemoryTest,2020.2.10,MacIntel,60,,,,,,,,,,,,,,,,,,,,,,,,,,,,,,,,,,,,,,,,,,,,,,,,,,,,,,,,,,,,,,,,,,,,,,,,,0,0,0,0,1,twoAudio.xlsx,,,,,,,,,,,,,,,,,,,,,,,,,,,,,,,,,,,,,,,,,,,,,,,,,,
,,,,,,,,,929,001,CBA,2021-05-20_00h33.36.087,workingMemoryTest,2020.2.10,MacIntel,60,,,,,,,,,,,,,,,,,,,,,,,,,,,,,,,,,,,,,,,,,,,,,,,,,,,,,,,,,,,,,,157,Audio/157.mp3,157,1.988515,1,0,0,0,0,1,3,,,,,,,,,,,,,,,,,,,,,,,,,,,,,,,,,,,,,,,,,,,,,,,,,,,,,,,,
,,,,,,,,,929,001,CBA,2021-05-20_00h33.36.087,workingMemoryTest,2020.2.10,MacIntel,60,,,,,,,,,,,,,,,,,,,,,,,,,,,,,,,,,,,,,,,,,,,,,,,,,,,,,,,,,,,,,,,,,,,,,,,,,0,1,1,1,1,threeAudio.xlsx,,,,,,,,,,,,,,,,,,,,,,,,,,,,,,,,,,,,,,,,,,,,,,,,,,
,,,,,,,,,929,001,CBA,2021-05-20_00h33.36.087,workingMemoryTest,2020.2.10,MacIntel,60,,,,,,,,,,,,,,,,,,,,,,,,,,,,,,,,,,,,,,,,,,,,,,,,,,,,,,,,,,,,,,6352,Audio/6352.mp3,6352,1.936905,1,0,0,0,0,1,4,,,,,,,,,,,,,,,,,,,,,,,,,,,,,,,,,,,,,,,,,,,,,,,,,,,,,,,,
,,,,,,,,,929,001,CBA,2021-05-20_00h33.36.087,workingMemoryTest,2020.2.10,MacIntel,60,,,,,,,,,,,,,,,,,,,,,,,,,,,,,,,,,,,,,,,,,,,,,,,,,,,,,,,,,,,,,,,,,,,,,,,,,0,2,2,2,1,fourAudio.xlsx,,,,,,,,,,,,,,,,,,,,,,,,,,,,,,,,,,,,,,,,,,,,,,,,,,
,,,,,,,,,929,001,CBA,2021-05-20_00h33.36.087,workingMemoryTest,2020.2.10,MacIntel,60,,,,,,,,,,,,,,,,,,,,,,,,,,,,,,,,,,,,,,,,,,,,,,,,,,,,,,,,,,,,,,59281,Audio/59281.mp3,59281,2.372655,1,0,0,0,0,1,5,,,,,,,,,,,,,,,,,,,,,,,,,,,,,,,,,,,,,,,,,,,,,,,,,,,,,,,,
,,,,,,,,,929,001,CBA,2021-05-20_00h33.36.087,workingMemoryTest,2020.2.10,MacIntel,60,,,,,,,,,,,,,,,,,,,,,,,,,,,,,,,,,,,,,,,,,,,,,,,,,,,,,,,,,,,,,,,,,,,,,,,,,0,3,3,3,1,fiveAudio.xlsx,,,,,,,,,,,,,,,,,,,,,,,,,,,,,,,,,,,,,,,,,,,,,,,,,,
,,,,,,,,,929,001,CBA,2021-05-20_00h33.36.087,workingMemoryTest,2020.2.10,MacIntel,60,,,,,,,,,,,,,,,,,,,,,,,,,,,,,,,,,,,,,,,,,,,,,,,,,,,,,,,,,,,,,,396172,Audio/396172.mp3,396172,3.90982,1,0,0,0,0,1,6,,,,,,,,,,,,,,,,,,,,,,,,,,,,,,,,,,,,,,,,,,,,,,,,,,,,,,,,
,,,,,,,,,929,001,CBA,2021-05-20_00h33.36.087,workingMemoryTest,2020.2.10,MacIntel,60,,,,,,,,,,,,,,,,,,,,,,,,,,,,,,,,,,,,,,,,,,,,,,,,,,,,,,,,,,,,,,,,,,,,,,,,,0,4,4,4,1,sixAudio.xlsx,,,,,,,,,,,,,,,,,,,,,,,,,,,,,,,,,,,,,,,,,,,,,,,,,,
,,,,,,,,,929,001,CBA,2021-05-20_00h33.36.087,workingMemoryTest,2020.2.10,MacIntel,60,,,,,,,,,,,,,,,,,,,,,,,,,,,,,,,,,,,,,,,,,,,,,,,,,,,,,,,,,,,,,,8241973,Audio/8241973.mp3,824973,4.513695,0,0,0,0,0,1,7,,,,,,,,,,,,,,,,,,,,,,,,,,,,,,,,,,,,,,,,,,,,,,,,,,,,,,,,
,,,,,,,,,929,001,CBA,2021-05-20_00h33.36.087,workingMemoryTest,2020.2.10,MacIntel,60,,,,,,,,,,,,,,,,,,,,,,,,,,,,,,,,,,,,,,,,,,,,,,,,,,,,,,,,,,,,,,2814367,Audio/2814367.mp3,2814367,5.999175,1,0,1,1,1,1,7,,,,,,,,,,,,,,,,,,,,,,,,,,,,,,,,,,,,,,,,,,,,,,,,,,,,,,,,
,,,,,,,,,929,001,CBA,2021-05-20_00h33.36.087,workingMemoryTest,2020.2.10,MacIntel,60,,,,,,,,,,,,,,,,,,,,,,,,,,,,,,,,,,,,,,,,,,,,,,,,,,,,,,,,,,,,,,,,,,,,,,,,,0,5,5,5,1,sevenAudio.xlsx,,,,,,,,,,,,,,,,,,,,,,,,,,,,,,,,,,,,,,,,,,,,,,,,,,
,,,,,,,,,929,001,CBA,2021-05-20_00h33.36.087,workingMemoryTest,2020.2.10,MacIntel,60,,,,,,,,,,,,,,,,,,,,,,,,,,,,,,,,,,,,,,,,,,,,,,,,,,,,,,,,,,,,,,53827164,Audio/53827164.mp3,537164,4.177875,0,0,0,0,0,1,8,,,,,,,,,,,,,,,,,,,,,,,,,,,,,,,,,,,,,,,,,,,,,,,,,,,,,,,,
,,,,,,,,,929,001,CBA,2021-05-20_00h33.36.087,workingMemoryTest,2020.2.10,MacIntel,60,,,,,,,,,,,,,,,,,,,,,,,,,,,,,,,,,,,,,,,,,,,,,,,,,,,,,,,,,,,,,,75241739,Audio/75241739.mp3,,5.416285,0,0,1,1,1,1,8,,,,,,,,,,,,,,,,,,,,,,,,,,,,,,,,,,,,,,,,,,,,,,,,,,,,,,,,
,,,,,,,,,929,001,CBA,2021-05-20_00h33.36.087,workingMemoryTest,2020.2.10,MacIntel,60,,,,,,,,,,,,,,,,,,,,,,,,,,,,,,,,,,,,,,,,,,,,,,,,,,,,,,,,,,,,,,,,,,,,,,,,,,,,,,,97,2.89011,1,0,0,0,0,1,2,97,Audio/97.mp3,,,,,,,,,,,,,,,,,,,,,,,,,,,,,,,,,,,,,,,
,,,,,,,,,929,001,CBA,2021-05-20_00h33.36.087,workingMemoryTest,2020.2.10,MacIntel,60,,,,,,,,,,,,,,,,,,,,,,,,,,,,,,,,,,,,,,,,,,,,,,,,,,,,,,,,,,,,,,,,,,,,,,,,,,,,,,,,,,,,,,,,,,0,0,0,0,1,twoWAIS.xlsx,,,,,,,,,,,,,,,,,,,,,,,,,,,,,,,,,
,,,,,,,,,929,001,CBA,2021-05-20_00h33.36.087,workingMemoryTest,2020.2.10,MacIntel,60,,,,,,,,,,,,,,,,,,,,,,,,,,,,,,,,,,,,,,,,,,,,,,,,,,,,,,,,,,,,,,,,,,,,,,,,,,,,,,,582,1.10205,1,0,0,0,0,1,3,582,Audio/582.mp3,,,,,,,,,,,,,,,,,,,,,,,,,,,,,,,,,,,,,,,
,,,,,,,,,929,001,CBA,2021-05-20_00h33.36.087,workingMemoryTest,2020.2.10,MacIntel,60,,,,,,,,,,,,,,,,,,,,,,,,,,,,,,,,,,,,,,,,,,,,,,,,,,,,,,,,,,,,,,,,,,,,,,,,,,,,,,,,,,,,,,,,,,0,1,1,1,1,threeWAIS.xlsx,,,,,,,,,,,,,,,,,,,,,,,,,,,,,,,,,
,,,,,,,,,929,001,CBA,2021-05-20_00h33.36.087,workingMemoryTest,2020.2.10,MacIntel,60,,,,,,,,,,,,,,,,,,,,,,,,,,,,,,,,,,,,,,,,,,,,,,,,,,,,,,,,,,,,,,,,,,,,,,,,,,,,,,,7286,1.772965,1,0,0,0,0,1,4,7286,Audio/7286.mp3,,,,,,,,,,,,,,,,,,,,,,,,,,,,,,,,,,,,,,,
,,,,,,,,,929,001,CBA,2021-05-20_00h33.36.087,workingMemoryTest,2020.2.10,MacIntel,60,,,,,,,,,,,,,,,,,,,,,,,,,,,,,,,,,,,,,,,,,,,,,,,,,,,,,,,,,,,,,,,,,,,,,,,,,,,,,,,,,,,,,,,,,,0,2,2,2,1,fourWAIS.xlsx,,,,,,,,,,,,,,,,,,,,,,,,,,,,,,,,,
,,,,,,,,,929,001,CBA,2021-05-20_00h33.36.087,workingMemoryTest,2020.2.10,MacIntel,60,,,,,,,,,,,,,,,,,,,,,,,,,,,,,,,,,,,,,,,,,,,,,,,,,,,,,,,,,,,,,,,,,,,,,,,,,,,,,,,42731,2.455545,1,0,0,0,0,1,5,42731,Audio/42731.mp3,,,,,,,,,,,,,,,,,,,,,,,,,,,,,,,,,,,,,,,
,,,,,,,,,929,001,CBA,2021-05-20_00h33.36.087,workingMemoryTest,2020.2.10,MacIntel,60,,,,,,,,,,,,,,,,,,,,,,,,,,,,,,,,,,,,,,,,,,,,,,,,,,,,,,,,,,,,,,,,,,,,,,,,,,,,,,,,,,,,,,,,,,0,3,3,3,1,fiveWAIS.xlsx,,,,,,,,,,,,,,,,,,,,,,,,,,,,,,,,,
,,,,,,,,,929,001,CBA,2021-05-20_00h33.36.087,workingMemoryTest,2020.2.10,MacIntel,60,,,,,,,,,,,,,,,,,,,,,,,,,,,,,,,,,,,,,,,,,,,,,,,,,,,,,,,,,,,,,,,,,,,,,,,,,,,,,,,392487,3.208435,1,0,0,0,0,1,6,392487,Audio/392487.mp3,,,,,,,,,,,,,,,,,,,,,,,,,,,,,,,,,,,,,,,
,,,,,,,,,929,001,CBA,2021-05-20_00h33.36.087,workingMemoryTest,2020.2.10,MacIntel,60,,,,,,,,,,,,,,,,,,,,,,,,,,,,,,,,,,,,,,,,,,,,,,,,,,,,,,,,,,,,,,,,,,,,,,,,,,,,,,,,,,,,,,,,,,0,4,4,4,1,sixWAIS.xlsx,,,,,,,,,,,,,,,,,,,,,,,,,,,,,,,,,
,,,,,,,,,929,001,CBA,2021-05-20_00h33.36.087,workingMemoryTest,2020.2.10,MacIntel,60,,,,,,,,,,,,,,,,,,,,,,,,,,,,,,,,,,,,,,,,,,,,,,,,,,,,,,,,,,,,,,,,,,,,,,,,,,,,,,,6917428,3.694535,1,0,0,0,0,1,7,6917428,Audio/6917428.mp3,,,,,,,,,,,,,,,,,,,,,,,,,,,,,,,,,,,,,,,
,,,,,,,,,929,001,CBA,2021-05-20_00h33.36.087,workingMemoryTest,2020.2.10,MacIntel,60,,,,,,,,,,,,,,,,,,,,,,,,,,,,,,,,,,,,,,,,,,,,,,,,,,,,,,,,,,,,,,,,,,,,,,,,,,,,,,,,,,,,,,,,,,0,5,5,5,1,sevenWAIS.xlsx,,,,,,,,,,,,,,,,,,,,,,,,,,,,,,,,,
,,,,,,,,,929,001,CBA,2021-05-20_00h33.36.087,workingMemoryTest,2020.2.10,MacIntel,60,,,,,,,,,,,,,,,,,,,,,,,,,,,,,,,,,,,,,,,,,,,,,,,,,,,,,,,,,,,,,,,,,,,,,,,,,,,,,,,3189647,4.72951,0,0,0,0,0,1,8,38296174,Audio/38296174.mp3,,,,,,,,,,,,,,,,,,,,,,,,,,,,,,,,,,,,,,,
,,,,,,,,,929,001,CBA,2021-05-20_00h33.36.087,workingMemoryTest,2020.2.10,MacIntel,60,,,,,,,,,,,,,,,,,,,,,,,,,,,,,,,,,,,,,,,,,,,,,,,,,,,,,,,,,,,,,,,,,,,,,,,,,,,,,,,58132647,5.514545,1,0,1,1,1,1,8,58132647,Audio/58132647.mp3,,,,,,,,,,,,,,,,,,,,,,,,,,,,,,,,,,,,,,,
,,,,,,,,,929,001,CBA,2021-05-20_00h33.36.087,workingMemoryTest,2020.2.10,MacIntel,60,,,,,,,,,,,,,,,,,,,,,,,,,,,,,,,,,,,,,,,,,,,,,,,,,,,,,,,,,,,,,,,,,,,,,,,,,,,,,,,,,,,,,,,,,,0,6,6,6,1,eightWAIS.xlsx,,,,,,,,,,,,,,,,,,,,,,,,,,,,,,,,,
,,,,,,,,,929,001,CBA,2021-05-20_00h33.36.087,workingMemoryTest,2020.2.10,MacIntel,60,,,,,,,,,,,,,,,,,,,,,,,,,,,,,,,,,,,,,,,,,,,,,,,,,,,,,,,,,,,,,,,,,,,,,,,,,,,,,,,27586914,6.41735,0,0,0,0,0,1,9,275863194,Audio/275863194.mp3,,,,,,,,,,,,,,,,,,,,,,,,,,,,,,,,,,,,,,,
,,,,,,,,,929,001,CBA,2021-05-20_00h33.36.087,workingMemoryTest,2020.2.10,MacIntel,60,,,,,,,,,,,,,,,,,,,,,,,,,,,,,,,,,,,,,,,,,,,,,,,,,,,,,,,,,,,,,,,,,,,,,,,,,,,,,,,,3.760515,0,0,1,1,1,1,9,713942568,Audio/713942568.mp3,,,,,,,,,,,,,,,,,,,,,,,,,,,,,,,,,,,,,,,
,,,,,,,,,929,001,CBA,2021-05-20_00h33.36.087,workingMemoryTest,2020.2.10,MacIntel,60,,,,,,,,,,,,,,,,,,,,,,,,,,,,,,,,,,,,,,,,,,,,,,,,,,,,,,,,,,,,,,,,,,,,,,,,,,,,,,,,,,,,,,,,,,,,,,,,0,0,0,0,1,,,,,,,,,,,,,,,,,,,,,,,,,,,,
,,,,,,,,,929,001,CBA,2021-05-20_00h33.36.087,workingMemoryTest,2020.2.10,MacIntel,60,,,,,,,,,,,,,,,,,,,,,,,,,,,,,,,,,,,,,,,,,,,,,0,1,1,1,1,0,1,0,,,,,,,,,,,,,,,,,,,,,,,,,,,,,,,,,,,,,,,,,,,,,,,,,,,,,,,,,,,,,,,,,,,,,,,,,,,,
,,,,,,,,,929,001,CBA,2021-05-20_00h33.36.087,workingMemoryTest,2020.2.10,MacIntel,60,,,,,,,,,,,,,,,,,,,,,,,,,,,,,,,,,,,,,,,,,,,,,,,,,,,,,,,,,,,,,,,,,,,,,,,,,,,,,,,,,,,,,,,,,,,,,,,,,,,,,7,1.285875,1,0,0,0,0,1,1 x 7 =,NA,practiceQ,7,,,,,,,,,,,,,,,,
,,,,,,,,,929,001,CBA,2021-05-20_00h33.36.087,workingMemoryTest,2020.2.10,MacIntel,60,,,,,,,,,,,,,,,,,,,,,,,,,,,,,,,,,,,,,,,,,,,,,,,,,,,,,,,,,,,,,,,,,,,,,,,,,,,,,,,,,,,,,,,,,,,,,,,,,,,,,50,1.72124,1,0,1,1,1,1,5 x 10 =,NA,practiceQ,50,,,,,,,,,,,,,,,,
,,,,,,,,,929,001,CBA,2021-05-20_00h33.36.087,workingMemoryTest,2020.2.10,MacIntel,60,,,,,,,,,,,,,,,,,,,,,,,,,,,,,,,,,,,,,,,,,,,,,,,,,,,,,,,,,,,,,,,,,,,,,,,,,,,,,,,,,,,,,,,,,,,,,,,,,,,,,33,1.235605,1,0,2,2,2,1,3 x 11 =,NA,practiceQ,33,,,,,,,,,,,,,,,,
,,,,,,,,,929,001,CBA,2021-05-20_00h33.36.087,workingMemoryTest,2020.2.10,MacIntel,60,,,,,,,,,,,,,,,,,,,,,,,,,,,,,,,,,,,,,,,,,,,,,,,,,,,,,,,,,,,,,,,,,,,,,,,,,,,,,,,,,,,,,,,,,,,,,,,,,,,,,10,1.65384,1,,,,,,5 x 2 =,largeFirst,smallProd,10,0,0,0,2,1,,,,,,,,,,,
,,,,,,,,,929,001,CBA,2021-05-20_00h33.36.087,workingMemoryTest,2020.2.10,MacIntel,60,,,,,,,,,,,,,,,,,,,,,,,,,,,,,,,,,,,,,,,,,,,,,,,,,,,,,,,,,,,,,,,,,,,,,,,,,,,,,,,,,,,,,,,,,,,,,,,,,,,,,12,1.45417,1,,,,,,2 x 6 =,smallFirst,smallProd,12,0,1,1,20,1,,,,,,,,,,,
,,,,,,,,,929,001,CBA,2021-05-20_00h33.36.087,workingMemoryTest,2020.2.10,MacIntel,60,,,,,,,,,,,,,,,,,,,,,,,,,,,,,,,,,,,,,,,,,,,,,,,,,,,,,,,,,,,,,,,,,,,,,,,,,,,,,,,,,,,,,,,,,,,,,,,,,,,,,72,8.72291,1,,,,,,8 x 9 =,smallFirst,largeProd,72,0,2,2,24,1,,,,,,,,,,,
,,,,,,,,,929,001,CBA,2021-05-20_00h33.36.087,workingMemoryTest,2020.2.10,MacIntel,60,,,,,,,,,,,,,,,,,,,,,,,,,,,,,,,,,,,,,,,,,,,,,,,,,,,,,,,,,,,,,,,,,,,,,,,,,,,,,,,,,,,,,,,,,,,,,,,,,,,,,9,2.29057,1,,,,,,3 x 3 =,tie,smallProd,9,0,3,3,28,1,,,,,,,,,,,
,,,,,,,,,929,001,CBA,2021-05-20_00h33.36.087,workingMemoryTest,2020.2.10,MacIntel,60,,,,,,,,,,,,,,,,,,,,,,,,,,,,,,,,,,,,,,,,,,,,,,,,,,,,,,,,,,,,,,,,,,,,,,,,,,,,,,,,,,,,,,,,,,,,,,,,,,,,,30,1.75458,1,,,,,,6 x 5 =,largeFirst,largeProd,30,0,4,4,13,1,,,,,,,,,,,
,,,,,,,,,929,001,CBA,2021-05-20_00h33.36.087,workingMemoryTest,2020.2.10,MacIntel,60,,,,,,,,,,,,,,,,,,,,,,,,,,,,,,,,,,,,,,,,,,,,,,,,,,,,,,,,,,,,,,,,,,,,,,,,,,,,,,,,,,,,,,,,,,,,,,,,,,,,,15,2.172355,1,,,,,,3 x 5 =,smallFirst,smallProd,15,0,5,5,19,1,,,,,,,,,,,
,,,,,,,,,929,001,CBA,2021-05-20_00h33.36.087,workingMemoryTest,2020.2.10,MacIntel,60,,,,,,,,,,,,,,,,,,,,,,,,,,,,,,,,,,,,,,,,,,,,,,,,,,,,,,,,,,,,,,,,,,,,,,,,,,,,,,,,,,,,,,,,,,,,,,,,,,,,,42,1.7883,1,,,,,,7 x 6 =,largeFirst,largeProd,42,0,6,6,10,1,,,,,,,,,,,
,,,,,,,,,929,001,CBA,2021-05-20_00h33.36.087,workingMemoryTest,2020.2.10,MacIntel,60,,,,,,,,,,,,,,,,,,,,,,,,,,,,,,,,,,,,,,,,,,,,,,,,,,,,,,,,,,,,,,,,,,,,,,,,,,,,,,,,,,,,,,,,,,,,,,,,,,,,,24,1.53988,1,,,,,,6 x 4 =,largeFirst,smallProd,24,0,7,7,6,1,,,,,,,,,,,
,,,,,,,,,929,001,CBA,2021-05-20_00h33.36.087,workingMemoryTest,2020.2.10,MacIntel,60,,,,,,,,,,,,,,,,,,,,,,,,,,,,,,,,,,,,,,,,,,,,,,,,,,,,,,,,,,,,,,,,,,,,,,,,,,,,,,,,,,,,,,,,,,,,,,,,,,,,,48,1.954835,1,,,,,,6 x 8 =,smallFirst,largeProd,48,0,8,8,21,1,,,,,,,,,,,
,,,,,,,,,929,001,CBA,2021-05-20_00h33.36.087,workingMemoryTest,2020.2.10,MacIntel,60,,,,,,,,,,,,,,,,,,,,,,,,,,,,,,,,,,,,,,,,,,,,,,,,,,,,,,,,,,,,,,,,,,,,,,,,,,,,,,,,,,,,,,,,,,,,,,,,,,,,,8,1.469965,1,,,,,,2 x 4 =,smallFirst,smallProd,8,0,9,9,17,1,,,,,,,,,,,
,,,,,,,,,929,001,CBA,2021-05-20_00h33.36.087,workingMemoryTest,2020.2.10,MacIntel,60,,,,,,,,,,,,,,,,,,,,,,,,,,,,,,,,,,,,,,,,,,,,,,,,,,,,,,,,,,,,,,,,,,,,,,,,,,,,,,,,,,,,,,,,,,,,,,,,,,,,,12,1.18598,1,,,,,,4 x 3 =,largeFirst,smallProd,12,0,10,10,1,1,,,,,,,,,,,
,,,,,,,,,929,001,CBA,2021-05-20_00h33.36.087,workingMemoryTest,2020.2.10,MacIntel,60,,,,,,,,,,,,,,,,,,,,,,,,,,,,,,,,,,,,,,,,,,,,,,,,,,,,,,,,,,,,,,,,,,,,,,,,,,,,,,,,,,,,,,,,,,,,,,,,,,,,,40,1.588895,1,,,,,,5 x 8 =,smallFirst,largeProd,40,0,11,11,27,1,,,,,,,,,,,
,,,,,,,,,929,001,CBA,2021-05-20_00h33.36.087,workingMemoryTest,2020.2.10,MacIntel,60,,,,,,,,,,,,,,,,,,,,,,,,,,,,,,,,,,,,,,,,,,,,,,,,,,,,,,,,,,,,,,,,,,,,,,,,,,,,,,,,,,,,,,,,,,,,,,,,,,,,,45,1.33742,1,,,,,,9 x 5 =,largeFirst,largeProd,45,0,12,12,9,1,,,,,,,,,,,
,,,,,,,,,929,001,CBA,2021-05-20_00h33.36.087,workingMemoryTest,2020.2.10,MacIntel,60,,,,,,,,,,,,,,,,,,,,,,,,,,,,,,,,,,,,,,,,,,,,,,,,,,,,,,,,,,,,,,,,,,,,,,,,,,,,,,,,,,,,,,,,,,,,,,,,,,,,,16,1.602605,1,,,,,,8 x 2 =,largeFirst,smallProd,16,0,13,13,5,1,,,,,,,,,,,
,,,,,,,,,929,001,CBA,2021-05-20_00h33.36.087,workingMemoryTest,2020.2.10,MacIntel,60,,,,,,,,,,,,,,,,,,,,,,,,,,,,,,,,,,,,,,,,,,,,,,,,,,,,,,,,,,,,,,,,,,,,,,,,,,,,,,,,,,,,,,,,,,,,,,,,,,,,,56,2.82414,1,,,,,,7 x 8 =,smallFirst,largeProd,56,0,14,14,23,1,,,,,,,,,,,
,,,,,,,,,929,001,CBA,2021-05-20_00h33.36.087,workingMemoryTest,2020.2.10,MacIntel,60,,,,,,,,,,,,,,,,,,,,,,,,,,,,,,,,,,,,,,,,,,,,,,,,,,,,,,,,,,,,,,,,,,,,,,,,,,,,,,,,,,,,,,,,,,,,,,,,,,,,,18,1.552345,1,,,,,,6 x 3 =,largeFirst,smallProd,18,0,15,15,3,1,,,,,,,,,,,
,,,,,,,,,929,001,CBA,2021-05-20_00h33.36.087,workingMemoryTest,2020.2.10,MacIntel,60,,,,,,,,,,,,,,,,,,,,,,,,,,,,,,,,,,,,,,,,,,,,,,,,,,,,,,,,,,,,,,,,,,,,,,,,,,,,,,,,,,,,,,,,,,,,,,,,,,,,,28,2.807855,1,,,,,,4 x 7 =,smallFirst,largeProd,28,0,16,16,25,1,,,,,,,,,,,
,,,,,,,,,929,001,CBA,2021-05-20_00h33.36.087,workingMemoryTest,2020.2.10,MacIntel,60,,,,,,,,,,,,,,,,,,,,,,,,,,,,,,,,,,,,,,,,,,,,,,,,,,,,,,,,,,,,,,,,,,,,,,,,,,,,,,,,,,,,,,,,,,,,,,,,,,,,,35,1.754565,1,,,,,,7 x 5 =,largeFirst,largeProd,35,0,17,17,11,1,,,,,,,,,,,
,,,,,,,,,929,001,CBA,2021-05-20_00h33.36.087,workingMemoryTest,2020.2.10,MacIntel,60,,,,,,,,,,,,,,,,,,,,,,,,,,,,,,,,,,,,,,,,,,,,,,,,,,,,,,,,,,,,,,,,,,,,,,,,,,,,,,,,,,,,,,,,,,,,,,,,,,,,,20,1.8237,1,,,,,,4 x 5 =,smallFirst,smallProd,20,0,18,18,16,1,,,,,,,,,,,
,,,,,,,,,929,001,CBA,2021-05-20_00h33.36.087,workingMemoryTest,2020.2.10,MacIntel,60,,,,,,,,,,,,,,,,,,,,,,,,,,,,,,,,,,,,,,,,,,,,,,,,,,,,,,,,,,,,,,,,,,,,,,,,,,,,,,,,,,,,,,,,,,,,,,,,,,,,,63,1.72173,1,,,,,,9 x 7 =,largeFirst,largeProd,63,0,19,19,12,1,,,,,,,,,,,
,,,,,,,,,929,001,CBA,2021-05-20_00h33.36.087,workingMemoryTest,2020.2.10,MacIntel,60,,,,,,,,,,,,,,,,,,,,,,,,,,,,,,,,,,,,,,,,,,,,,,,,,,,,,,,,,,,,,,,,,,,,,,,,,,,,,,,,,,,,,,,,,,,,,,,,,,,,,49,1.652685,1,,,,,,7 x 7 =,tie,largeProd,49,0,20,20,29,1,,,,,,,,,,,
,,,,,,,,,929,001,CBA,2021-05-20_00h33.36.087,workingMemoryTest,2020.2.10,MacIntel,60,,,,,,,,,,,,,,,,,,,,,,,,,,,,,,,,,,,,,,,,,,,,,,,,,,,,,,,,,,,,,,,,,,,,,,,,,,,,,,,,,,,,,,,,,,,,,,,,,,,,,32,2.05464,1,,,,,,8 x 4 =,largeFirst,largeProd,32,0,21,21,8,1,,,,,,,,,,,
,,,,,,,,,929,001,CBA,2021-05-20_00h33.36.087,workingMemoryTest,2020.2.10,MacIntel,60,,,,,,,,,,,,,,,,,,,,,,,,,,,,,,,,,,,,,,,,,,,,,,,,,,,,,,,,,,,,,,,,,,,,,,,,,,,,,,,,,,,,,,,,,,,,,,,,,,,,,27,1.92378,1,,,,,,9 x 3 =,largeFirst,largeProd,27,0,22,22,7,1,,,,,,,,,,,
,,,,,,,,,929,001,CBA,2021-05-20_00h33.36.087,workingMemoryTest,2020.2.10,MacIntel,60,,,,,,,,,,,,,,,,,,,,,,,,,,,,,,,,,,,,,,,,,,,,,,,,,,,,,,,,,,,,,,,,,,,,,,,,,,,,,,,,,,,,,,,,,,,,,,,,,,,,,24,1.6042,1,,,,,,3 x 8 =,smallFirst,smallProd,24,0,23,23,15,1,,,,,,,,,,,
,,,,,,,,,929,001,CBA,2021-05-20_00h33.36.087,workingMemoryTest,2020.2.10,MacIntel,60,,,,,,,,,,,,,,,,,,,,,,,,,,,,,,,,,,,,,,,,,,,,,,,,,,,,,,,,,,,,,,,,,,,,,,,,,,,,,,,,,,,,,,,,,,,,,,,,,,,,,36,7.25013,1,,,,,,4 x 9 =,smallFirst,largeProd,36,0,24,24,26,1,,,,,,,,,,,
,,,,,,,,,929,001,CBA,2021-05-20_00h33.36.087,workingMemoryTest,2020.2.10,MacIntel,60,,,,,,,,,,,,,,,,,,,,,,,,,,,,,,,,,,,,,,,,,,,,,,,,,,,,,,,,,,,,,,,,,,,,,,,,,,,,,,,,,,,,,,,,,,,,,,,,,,,,,14,1.253215,1,,,,,,7 x 2 =,largeFirst,smallProd,14,0,25,25,4,1,,,,,,,,,,,
,,,,,,,,,929,001,CBA,2021-05-20_00h33.36.087,workingMemoryTest,2020.2.10,MacIntel,60,,,,,,,,,,,,,,,,,,,,,,,,,,,,,,,,,,,,,,,,,,,,,,,,,,,,,,,,,,,,,,,,,,,,,,,,,,,,,,,,,,,,,,,,,,,,,,,,,,,,,54,3.99386,1,,,,,,6 x 9 =,smallFirst,largeProd,54,0,26,26,22,1,,,,,,,,,,,
,,,,,,,,,929,001,CBA,2021-05-20_00h33.36.087,workingMemoryTest,2020.2.10,MacIntel,60,,,,,,,,,,,,,,,,,,,,,,,,,,,,,,,,,,,,,,,,,,,,,,,,,,,,,,,,,,,,,,,,,,,,,,,,,,,,,,,,,,,,,,,,,,,,,,,,,,,,,6,1.35356,1,,,,,,3 x 2 =,largeFirst,smallProd,6,0,27,27,0,1,,,,,,,,,,,
,,,,,,,,,929,001,CBA,2021-05-20_00h33.36.087,workingMemoryTest,2020.2.10,MacIntel,60,,,,,,,,,,,,,,,,,,,,,,,,,,,,,,,,,,,,,,,,,,,,,,,,,,,,,,,,,,,,,,,,,,,,,,,,,,,,,,,,,,,,,,,,,,,,,,,,,,,,,21,1.354015,1,,,,,,3 x 7 =,smallFirst,smallProd,21,0,28,28,14,1,,,,,,,,,,,
,,,,,,,,,929,001,CBA,2021-05-20_00h33.36.087,workingMemoryTest,2020.2.10,MacIntel,60,,,,,,,,,,,,,,,,,,,,,,,,,,,,,,,,,,,,,,,,,,,,,,,,,,,,,,,,,,,,,,,,,,,,,,,,,,,,,,,,,,,,,,,,,,,,,,,,,,,,,18,1.5875,1,,,,,,2 x 9 =,smallFirst,smallProd,18,0,29,29,18,1,,,,,,,,,,,
,,,,,,,,,929,001,CBA,2021-05-20_00h33.36.087,workingMemoryTest,2020.2.10,MacIntel,60,,,,,,,,,,,,,,,,,,,,,,,,,,,,,,,,,,,,,,,,,,,,,,,,,,,,,,,,,,,,,,,,,,,,,,,,,,,,,,,,,,,,,,,,,,,,,,,,,,,,,,,,,,,,,,,,,,,,,,0,0,0,0,1,multiplOne.xlsx,,,,,
,,,,,,,,,929,001,CBA,2021-05-20_00h33.36.087,workingMemoryTest,2020.2.10,MacIntel,60,,,,,,,,,,,,,,,,,,,,,,,,,,,,,,,,,,,,,,,,,,,,,,,,,,,,,,,,,,,,,,,,,,,,,,,,,,,,,,,,,,,,,,,,,,,,,,,,,,,,,10,1.98875,1,,,,,,2 x 5 =,smallFirst,smallProd,10,0,0,0,16,1,,,,,,,,,,,
,,,,,,,,,929,001,CBA,2021-05-20_00h33.36.087,workingMemoryTest,2020.2.10,MacIntel,60,,,,,,,,,,,,,,,,,,,,,,,,,,,,,,,,,,,,,,,,,,,,,,,,,,,,,,,,,,,,,,,,,,,,,,,,,,,,,,,,,,,,,,,,,,,,,,,,,,,,,21,1.270715,1,,,,,,7 x 3 =,largeFirst,smallProd,21,0,1,1,3,1,,,,,,,,,,,
,,,,,,,,,929,001,CBA,2021-05-20_00h33.36.087,workingMemoryTest,2020.2.10,MacIntel,60,,,,,,,,,,,,,,,,,,,,,,,,,,,,,,,,,,,,,,,,,,,,,,,,,,,,,,,,,,,,,,,,,,,,,,,,,,,,,,,,,,,,,,,,,,,,,,,,,,,,,18,2.071945,0,,,,,,3 x 9 =,smallFirst,largeProd,27,0,2,2,24,1,,,,,,,,,,,
,,,,,,,,,929,001,CBA,2021-05-20_00h33.36.087,workingMemoryTest,2020.2.10,MacIntel,60,,,,,,,,,,,,,,,,,,,,,,,,,,,,,,,,,,,,,,,,,,,,,,,,,,,,,,,,,,,,,,,,,,,,,,,,,,,,,,,,,,,,,,,,,,,,,,,,,,,,,16,1.286455,1,,,,,,4 x 4 =,tie,smallProd,16,0,3,3,28,1,,,,,,,,,,,
,,,,,,,,,929,001,CBA,2021-05-20_00h33.36.087,workingMemoryTest,2020.2.10,MacIntel,60,,,,,,,,,,,,,,,,,,,,,,,,,,,,,,,,,,,,,,,,,,,,,,,,,,,,,,,,,,,,,,,,,,,,,,,,,,,,,,,,,,,,,,,,,,,,,,,,,,,,,56,1.68802,1,,,,,,8 x 7 =,largeFirst,largeProd,56,0,4,4,10,1,,,,,,,,,,,
,,,,,,,,,929,001,CBA,2021-05-20_00h33.36.087,workingMemoryTest,2020.2.10,MacIntel,60,,,,,,,,,,,,,,,,,,,,,,,,,,,,,,,,,,,,,,,,,,,,,,,,,,,,,,,,,,,,,,,,,,,,,,,,,,,,,,,,,,,,,,,,,,,,,,,,,,,,,12,1.153395,1,,,,,,6 x 2 =,largeFirst,smallProd,12,0,5,5,2,1,,,,,,,,,,,
,,,,,,,,,929,001,CBA,2021-05-20_00h33.36.087,workingMemoryTest,2020.2.10,MacIntel,60,,,,,,,,,,,,,,,,,,,,,,,,,,,,,,,,,,,,,,,,,,,,,,,,,,,,,,,,,,,,,,,,,,,,,,,,,,,,,,,,,,,,,,,,,,,,,,,,,,,,,48,2.406145,1,,,,,,8 x 6 =,largeFirst,largeProd,48,0,6,6,13,1,,,,,,,,,,,
,,,,,,,,,929,001,CBA,2021-05-20_00h33.36.087,workingMemoryTest,2020.2.10,MacIntel,60,,,,,,,,,,,,,,,,,,,,,,,,,,,,,,,,,,,,,,,,,,,,,,,,,,,,,,,,,,,,,,,,,,,,,,,,,,,,,,,,,,,,,,,,,,,,,,,,,,,,,56,2.18702,0,,,,,,7 x 9 =,smallFirst,largeProd,63,0,7,7,26,1,,,,,,,,,,,
,,,,,,,,,929,001,CBA,2021-05-20_00h33.36.087,workingMemoryTest,2020.2.10,MacIntel,60,,,,,,,,,,,,,,,,,,,,,,,,,,,,,,,,,,,,,,,,,,,,,,,,,,,,,,,,,,,,,,,,,,,,,,,,,,,,,,,,,,,,,,,,,,,,,,,,,,,,,32,2.1228,1,,,,,,4 x 8 =,smallFirst,largeProd,32,0,8,8,22,1,,,,,,,,,,,
,,,,,,,,,929,001,CBA,2021-05-20_00h33.36.087,workingMemoryTest,2020.2.10,MacIntel,60,,,,,,,,,,,,,,,,,,,,,,,,,,,,,,,,,,,,,,,,,,,,,,,,,,,,,,,,,,,,,,,,,,,,,,,,,,,,,,,,,,,,,,,,,,,,,,,,,,,,,8,1.419995,1,,,,,,4 x 2 =,largeFirst,smallProd,8,0,9,9,0,1,,,,,,,,,,,
,,,,,,,,,929,001,CBA,2021-05-20_00h33.36.087,workingMemoryTest,2020.2.10,MacIntel,60,,,,,,,,,,,,,,,,,,,,,,,,,,,,,,,,,,,,,,,,,,,,,,,,,,,,,,,,,,,,,,,,,,,,,,,,,,,,,,,,,,,,,,,,,,,,,,,,,,,,,18,1.55411,1,,,,,,3 x 6 =,smallFirst,smallProd,18,0,10,10,17,1,,,,,,,,,,,
,,,,,,,,,929,001,CBA,2021-05-20_00h33.36.087,workingMemoryTest,2020.2.10,MacIntel,60,,,,,,,,,,,,,,,,,,,,,,,,,,,,,,,,,,,,,,,,,,,,,,,,,,,,,,,,,,,,,,,,,,,,,,,,,,,,,,,,,,,,,,,,,,,,,,,,,,,,,14,1.15446,1,,,,,,2 x 7 =,smallFirst,smallProd,14,0,11,11,18,1,,,,,,,,,,,
,,,,,,,,,929,001,CBA,2021-05-20_00h33.36.087,workingMemoryTest,2020.2.10,MacIntel,60,,,,,,,,,,,,,,,,,,,,,,,,,,,,,,,,,,,,,,,,,,,,,,,,,,,,,,,,,,,,,,,,,,,,,,,,,,,,,,,,,,,,,,,,,,,,,,,,,,,,,42,2.33946,1,,,,,,6 x 7 =,smallFirst,largeProd,42,0,12,12,23,1,,,,,,,,,,,
,,,,,,,,,929,001,CBA,2021-05-20_00h33.36.087,workingMemoryTest,2020.2.10,MacIntel,60,,,,,,,,,,,,,,,,,,,,,,,,,,,,,,,,,,,,,,,,,,,,,,,,,,,,,,,,,,,,,,,,,,,,,,,,,,,,,,,,,,,,,,,,,,,,,,,,,,,,,12,1.284215,1,,,,,,3 x 4 =,smallFirst,smallProd,12,0,13,13,15,1,,,,,,,,,,,
,,,,,,,,,929,001,CBA,2021-05-20_00h33.36.087,workingMemoryTest,2020.2.10,MacIntel,60,,,,,,,,,,,,,,,,,,,,,,,,,,,,,,,,,,,,,,,,,,,,,,,,,,,,,,,,,,,,,,,,,,,,,,,,,,,,,,,,,,,,,,,,,,,,,,,,,,,,,15,1.220695,1,,,,,,5 x 3 =,largeFirst,smallProd,15,0,14,14,1,1,,,,,,,,,,,
,,,,,,,,,929,001,CBA,2021-05-20_00h33.36.087,workingMemoryTest,2020.2.10,MacIntel,60,,,,,,,,,,,,,,,,,,,,,,,,,,,,,,,,,,,,,,,,,,,,,,,,,,,,,,,,,,,,,,,,,,,,,,,,,,,,,,,,,,,,,,,,,,,,,,,,,,,,,28,2.840675,1,,,,,,7 x 4 =,largeFirst,largeProd,28,0,15,15,7,1,,,,,,,,,,,
,,,,,,,,,929,001,CBA,2021-05-20_00h33.36.087,workingMemoryTest,2020.2.10,MacIntel,60,,,,,,,,,,,,,,,,,,,,,,,,,,,,,,,,,,,,,,,,,,,,,,,,,,,,,,,,,,,,,,,,,,,,,,,,,,,,,,,,,,,,,,,,,,,,,,,,,,,,,18,1.50206,1,,,,,,9 x 2 =,largeFirst,smallProd,18,0,16,16,6,1,,,,,,,,,,,
,,,,,,,,,929,001,CBA,2021-05-20_00h33.36.087,workingMemoryTest,2020.2.10,MacIntel,60,,,,,,,,,,,,,,,,,,,,,,,,,,,,,,,,,,,,,,,,,,,,,,,,,,,,,,,,,,,,,,,,,,,,,,,,,,,,,,,,,,,,,,,,,,,,,,,,,,,,,6,1.30337,1,,,,,,2 x 3 =,smallFirst,smallProd,6,0,17,17,14,1,,,,,,,,,,,
,,,,,,,,,929,001,CBA,2021-05-20_00h33.36.087,workingMemoryTest,2020.2.10,MacIntel,60,,,,,,,,,,,,,,,,,,,,,,,,,,,,,,,,,,,,,,,,,,,,,,,,,,,,,,,,,,,,,,,,,,,,,,,,,,,,,,,,,,,,,,,,,,,,,,,,,,,,,20,1.75392,1,,,,,,5 x 4 =,largeFirst,smallProd,20,0,18,18,5,1,,,,,,,,,,,
,,,,,,,,,929,001,CBA,2021-05-20_00h33.36.087,workingMemoryTest,2020.2.10,MacIntel,60,,,,,,,,,,,,,,,,,,,,,,,,,,,,,,,,,,,,,,,,,,,,,,,,,,,,,,,,,,,,,,,,,,,,,,,,,,,,,,,,,,,,,,,,,,,,,,,,,,,,,18,2.02361,0,,,,,,8 x 3 =,largeFirst,smallProd,24,0,19,19,4,1,,,,,,,,,,,
,,,,,,,,,929,001,CBA,2021-05-20_00h33.36.087,workingMemoryTest,2020.2.10,MacIntel,60,,,,,,,,,,,,,,,,,,,,,,,,,,,,,,,,,,,,,,,,,,,,,,,,,,,,,,,,,,,,,,,,,,,,,,,,,,,,,,,,,,,,,,,,,,,,,,,,,,,,,64,2.474405,1,,,,,,8 x 8 =,tie,largeProd,64,0,20,20,29,1,,,,,,,,,,,
,,,,,,,,,929,001,CBA,2021-05-20_00h33.36.087,workingMemoryTest,2020.2.10,MacIntel,60,,,,,,,,,,,,,,,,,,,,,,,,,,,,,,,,,,,,,,,,,,,,,,,,,,,,,,,,,,,,,,,,,,,,,,,,,,,,,,,,,,,,,,,,,,,,,,,,,,,,,30,1.902535,1,,,,,,5 x 6 =,smallFirst,largeProd,30,0,21,21,27,1,,,,,,,,,,,
,,,,,,,,,929,001,CBA,2021-05-20_00h33.36.087,workingMemoryTest,2020.2.10,MacIntel,60,,,,,,,,,,,,,,,,,,,,,,,,,,,,,,,,,,,,,,,,,,,,,,,,,,,,,,,,,,,,,,,,,,,,,,,,,,,,,,,,,,,,,,,,,,,,,,,,,,,,,36,1.87378,1,,,,,,9 x 4 =,largeFirst,largeProd,36,0,22,22,8,1,,,,,,,,,,,
,,,,,,,,,929,001,CBA,2021-05-20_00h33.36.087,workingMemoryTest,2020.2.10,MacIntel,60,,,,,,,,,,,,,,,,,,,,,,,,,,,,,,,,,,,,,,,,,,,,,,,,,,,,,,,,,,,,,,,,,,,,,,,,,,,,,,,,,,,,,,,,,,,,,,,,,,,,,36,2.107025,0,,,,,,4 x 6 =,smallFirst,smallProd,24,0,23,23,20,1,,,,,,,,,,,
,,,,,,,,,929,001,CBA,2021-05-20_00h33.36.087,workingMemoryTest,2020.2.10,MacIntel,60,,,,,,,,,,,,,,,,,,,,,,,,,,,,,,,,,,,,,,,,,,,,,,,,,,,,,,,,,,,,,,,,,,,,,,,,,,,,,,,,,,,,,,,,,,,,,,,,,,,,,72,2.83882,1,,,,,,9 x 8 =,largeFirst,largeProd,72,0,24,24,12,1,,,,,,,,,,,
,,,,,,,,,929,001,CBA,2021-05-20_00h33.36.087,workingMemoryTest,2020.2.10,MacIntel,60,,,,,,,,,,,,,,,,,,,,,,,,,,,,,,,,,,,,,,,,,,,,,,,,,,,,,,,,,,,,,,,,,,,,,,,,,,,,,,,,,,,,,,,,,,,,,,,,,,,,,54,1.97195,1,,,,,,9 x 6 =,largeFirst,largeProd,54,0,25,25,9,1,,,,,,,,,,,
,,,,,,,,,929,001,CBA,2021-05-20_00h33.36.087,workingMemoryTest,2020.2.10,MacIntel,60,,,,,,,,,,,,,,,,,,,,,,,,,,,,,,,,,,,,,,,,,,,,,,,,,,,,,,,,,,,,,,,,,,,,,,,,,,,,,,,,,,,,,,,,,,,,,,,,,,,,,16,1.656815,1,,,,,,2 x 8 =,smallFirst,smallProd,16,0,26,26,19,1,,,,,,,,,,,
,,,,,,,,,929,001,CBA,2021-05-20_00h33.36.087,workingMemoryTest,2020.2.10,MacIntel,60,,,,,,,,,,,,,,,,,,,,,,,,,,,,,,,,,,,,,,,,,,,,,,,,,,,,,,,,,,,,,,,,,,,,,,,,,,,,,,,,,,,,,,,,,,,,,,,,,,,,,40,1.453815,1,,,,,,8 x 5 =,largeFirst,largeProd,40,0,27,27,11,1,,,,,,,,,,,
,,,,,,,,,929,001,CBA,2021-05-20_00h33.36.087,workingMemoryTest,2020.2.10,MacIntel,60,,,,,,,,,,,,,,,,,,,,,,,,,,,,,,,,,,,,,,,,,,,,,,,,,,,,,,,,,,,,,,,,,,,,,,,,,,,,,,,,,,,,,,,,,,,,,,,,,,,,,35,2.922485,1,,,,,,5 x 7 =,smallFirst,largeProd,35,0,28,28,25,1,,,,,,,,,,,
,,,,,,,,,929,001,CBA,2021-05-20_00h33.36.087,workingMemoryTest,2020.2.10,MacIntel,60,,,,,,,,,,,,,,,,,,,,,,,,,,,,,,,,,,,,,,,,,,,,,,,,,,,,,,,,,,,,,,,,,,,,,,,,,,,,,,,,,,,,,,,,,,,,,,,,,,,,,45,1.852785,1,,,,,,5 x 9 =,smallFirst,largeProd,45,0,29,29,21,1,,,,,,,,,,,
,,,,,,,,,929,001,CBA,2021-05-20_00h33.36.087,workingMemoryTest,2020.2.10,MacIntel,60,,,,,,,,,,,,,,,,,,,,,,,,,,,,,,,,,,,,,,,,,,,,,,,,,,,,,,,,,,,,,,,,,,,,,,,,,,,,,,,,,,,,,,,,,,,,,,,,,,,,,,,,,,,,,,,,,,,,,,0,1,1,1,1,multiplTwo.xlsx,,,,,
,,,,,,,,,929,001,CBA,2021-05-20_00h33.36.087,workingMemoryTest,2020.2.10,MacIntel,60,,,,,,,,,,,,,,,,,,,,,,,,,,,,,,,,,,,,,,,,,,,,,,,,,,,,,,,,,,,,,,,,,,,,,,,,,,,,,,,,,,,,,,,,,,,,,,,,,,,,,,,,,,,,,,,,,,,,,,,,,,,,0,0,0,0,1
,,,,,,,,,929,001,CBA,2021-05-20_00h33.36.087,workingMemoryTest,2020.2.10,MacIntel,60,,,,,,,,,,,,,,,,,,,,,,,,,,,,,,,,,,,,,,,,,,,,,0,2,2,2,1,1,0,0,,,,,,,,,,,,,,,,,,,,,,,,,,,,,,,,,,,,,,,,,,,,,,,,,,,,,,,,,,,,,,,,,,,,,,,,,,,,
